acc_x,acc_y,acc_z,gyro_x,gyro_y,gyro_z,label
3.547383725337341,0.9366059457682901,-3.0475242802745313,0,0,0,1
2.6733899253373408,0.9495297157682902,-0.5697698302745312,0,0,0,1
-1.130051074662659,-0.7829622442317099,-1.5424247802745312,0,0,0,1
-0.9948906746626591,-0.7640766342317099,3.2201199197254686,0,0,0,1
-1.441354274662659,-1.76996108423171,-0.27515968027453125,0,0,0,1
2.5417437253373407,-0.5443559842317098,-0.9439994402745312,0,0,0,1
-0.7721438246626591,0.05985641776829013,0.05129463972546878,0,0,0,1
-0.7721438246626591,0.05985641776829013,0.05129463972546878,0,0,0,1
-0.7721438246626591,0.05985641776829013,0.05129463972546878,0,0,0,1
-0.7721438246626591,0.05985641776829013,0.05129463972546878,0,0,0,1
4.539273725337341,1.25776831576829,1.5283107197254688,0,0,0,1
-1.911829974662659,0.35822589576829017,-4.720881680274531,0,0,0,1
-1.911829974662659,0.35822589576829017,-4.720881680274531,0,0,0,1
-1.911829974662659,0.35822589576829017,-4.720881680274531,0,0,0,1
-1.911829974662659,0.35822589576829017,-4.720881680274531,0,0,0,1
-2.5296234746626594,-1.69568108423171,2.7559375197254687,0,0,0,1
-4.814928974662659,-0.6529104542317099,1.2184715197254687,0,0,0,1
0.22001602533734088,0.8549201657682901,3.3718945197254686,0,0,0,1
3.184079725337341,1.08823611576829,0.48359533972546875,0,0,0,1
3.184079725337341,1.08823611576829,0.48359533972546875,0,0,0,1
2.9902701253373407,0.45468254576829015,-3.6063628802745313,0,0,0,1
4.20773842533734,-0.5248943342317098,1.668621719725469,0,0,0,1
0.2512459953373409,-0.9588111842317099,0.44046988972546874,0,0,0,1
0.2512459953373409,-0.9588111842317099,0.44046988972546874,0,0,0,1
-3.584031074662659,0.15541960576829011,1.2328349197254689,0,0,0,1
0.6355424253373408,1.1119833157682901,1.999215619725469,0,0,0,1
0.6355424253373408,1.1119833157682901,1.999215619725469,0,0,0,1
2.955516325337341,1.16412841576829,-1.4301545802745312,0,0,0,1
3.8605790253373407,0.42589308576829016,-3.7882812802745316,0,0,0,1
0.3996596453373409,-0.46169434423170985,-0.8271885802745311,0,0,0,1
-1.042800374662659,-0.7691089842317098,1.6305524197254688,0,0,0,1
-1.042800374662659,-0.7691089842317098,1.6305524197254688,0,0,0,1
-1.042800374662659,-0.7691089842317098,1.6305524197254688,0,0,0,1
-1.883069974662659,-0.5564050442317099,2.8310060197254687,0,0,0,1
1.752419925337341,0.0056881864682901285,-1.5778368802745313,0,0,0,1
1.117933725337341,0.2130268657682901,-0.40469030027453123,0,0,0,1
-0.1437802146626591,-0.46869228423170983,0.32696451972546875,0,0,0,1
-0.1437802146626591,-0.46869228423170983,0.32696451972546875,0,0,0,1
-0.6776156246626591,-0.7622221542317098,3.2586698197254687,0,0,0,1
-0.6907496246626591,0.8182478157682902,0.6483703497254688,0,0,0,1
1.120353225337341,1.95345461576829,-1.9846179802745312,0,0,0,1
2.720799925337341,2.2765639157682904,-3.2074499802745313,0,0,0,1
2.720799925337341,2.2765639157682904,-3.2074499802745313,0,0,0,1
1.587128225337341,1.53477591576829,-1.8622348802745312,0,0,0,1
-0.7783722746626591,-0.2996236842317099,-0.41871941027453125,0,0,0,1
-2.488852474662659,-0.5715479842317098,-0.03445472727453122,0,0,0,1
-1.303741874662659,0.05053387576829013,-1.6427030802745313,0,0,0,1
-1.303741874662659,0.05053387576829013,-1.6427030802745313,0,0,0,1
-1.303741874662659,0.05053387576829013,-1.6427030802745313,0,0,0,1
0.9813828653373409,0.1347108657682901,-2.0445044802745316,0,0,0,1
2.2395511253373406,0.1517046757682901,-0.39069745027453123,0,0,0,1
2.2395511253373406,0.1517046757682901,-0.39069745027453123,0,0,0,1
1.793040725337341,-0.18553025423170988,-0.3720617302745312,0,0,0,1
-0.4946322246626591,-0.4431851842317099,-0.6278619502745312,0,0,0,1
-2.372712574662659,-0.12275056423170987,2.7101006197254685,0,0,0,1
-2.372712574662659,-0.12275056423170987,2.7101006197254685,0,0,0,1
-1.671124874662659,0.45105879576829017,0.7784147497254689,0,0,0,1
0.18428088533734088,0.37325834576829015,-3.0568478802745314,0,0,0,1
0.18428088533734088,0.37325834576829015,-3.0568478802745314,0,0,0,1
3.258430025337341,0.6577264857682902,0.24847784972546877,0,0,0,1
-0.7029404746626591,2.1353479157682904,3.398996519725469,0,0,0,1
-0.7029404746626591,2.1353479157682904,3.398996519725469,0,0,0,1
-0.7029404746626591,2.1353479157682904,3.398996519725469,0,0,0,1
-0.7029404746626591,2.1353479157682904,3.398996519725469,0,0,0,1
0.8077759953373409,-2.57339908423171,-0.4413807802745312,0,0,0,1
4.1816392253373404,-3.8898198842317098,0.8215063197254688,0,0,0,1
3.1041227253373407,-2.99027678423171,-0.33491068027453125,0,0,0,1
-3.5881785746626593,1.87670781576829,0.7991781497254689,0,0,0,1
-3.572346674662659,1.50156981576829,2.474784619725469,0,0,0,1
-3.572346674662659,1.50156981576829,2.474784619725469,0,0,0,1
1.260282025337341,-1.0126918842317099,-1.0182383802745312,0,0,0,1
5.356931225337341,-1.9503964842317099,-0.4423884802745312,0,0,0,1
1.595013125337341,-0.40161223423170983,-3.0489931802745316,0,0,0,1
1.595013125337341,-0.40161223423170983,-3.0489931802745316,0,0,0,1
-0.09694908466265911,1.09886741576829,0.8034930497254689,0,0,0,1
-2.157309474662659,0.31552071576829016,2.9560205197254685,0,0,0,1
-2.157309474662659,0.31552071576829016,2.9560205197254685,0,0,0,1
0.1519103253373409,0.08274190576829013,0.8116062197254689,0,0,0,1
2.798789525337341,0.09974359576829013,-1.3605958802745313,0,0,0,1
2.798789525337341,0.09974359576829013,-1.3605958802745313,0,0,0,1
3.053627525337341,1.43114191576829,-2.3390729802745316,0,0,0,1
-0.6958231746626591,0.5468242157682901,0.4540349197254688,0,0,0,1
-2.523748274662659,-0.2415359242317099,1.3051947197254687,0,0,0,1
-2.523748274662659,-0.2415359242317099,1.3051947197254687,0,0,0,1
-2.5237798746626594,-0.27397720423170985,2.7397928197254684,0,0,0,1
-0.8203139146626591,-0.25477944423170984,1.1083154197254688,0,0,0,1
3.8928294253373408,0.9010538657682902,-0.9173066302745312,0,0,0,1
2.022719925337341,1.17584931576829,-2.0708704802745315,0,0,0,1
2.022719925337341,1.17584931576829,-2.0708704802745315,0,0,0,1
-0.3596453546626591,1.49095311576829,-0.5417355802745312,0,0,0,1
-3.910061274662659,-2.3263500842317097,-2.0407829802745314,0,0,0,1
-3.910061274662659,-2.3263500842317097,-2.0407829802745314,0,0,0,1
-3.910061274662659,-2.3263500842317097,-2.0407829802745314,0,0,0,1
1.347705425337341,-2.19199868423171,1.3606021197254687,0,0,0,1
1.347705425337341,-2.19199868423171,1.3606021197254687,0,0,0,1
1.862198325337341,1.87516811576829,-1.3797389802745312,0,0,0,1
1.862198325337341,1.87516811576829,-1.3797389802745312,0,0,0,1
1.862198325337341,1.87516811576829,-1.3797389802745312,0,0,0,1
1.862198325337341,1.87516811576829,-1.3797389802745312,0,0,0,1
-2.204206974662659,0.7709772757682901,-1.0295447802745312,0,0,0,1
2.5152125253373407,-0.013332155231709872,-2.3017308802745315,0,0,0,1
2.5152125253373407,-0.013332155231709872,-2.3017308802745315,0,0,0,1
2.5152125253373407,-0.013332155231709872,-2.3017308802745315,0,0,0,1
2.1248307253373406,1.38766931576829,-1.9347161802745312,0,0,0,1
2.1248307253373406,1.38766931576829,-1.9347161802745312,0,0,0,1
-1.756311874662659,-0.3707617342317099,2.0693507197254686,0,0,0,1
-1.756311874662659,-0.3707617342317099,2.0693507197254686,0,0,0,1
-1.756311874662659,-0.3707617342317099,2.0693507197254686,0,0,0,1
-1.981181174662659,-0.48601688423170986,0.7582341697254689,0,0,0,1
-0.014333231662659107,0.2587148457682901,1.0308129197254687,0,0,0,1
1.430470925337341,0.8862446757682901,-1.1234505802745312,0,0,0,1
2.0479637253373406,1.3439373157682901,-1.7655999802745312,0,0,0,1
1.414763925337341,0.40218107576829015,0.039099177725468774,0,0,0,1
1.414763925337341,0.40218107576829015,0.039099177725468774,0,0,0,1
-1.241364974662659,-0.6567773842317098,2.5020885197254685,0,0,0,1
-1.362240274662659,-0.2452514442317099,1.104424819725469,0,0,0,1
-0.7121834746626591,0.07187389176829014,-0.20669989027453123,0,0,0,1
-0.7121834746626591,0.07187389176829014,-0.20669989027453123,0,0,0,1
0.034158245337340895,0.6031990157682902,-0.6641292302745312,0,0,0,1
0.034158245337340895,0.6031990157682902,-0.6641292302745312,0,0,0,1
0.08950378133734088,-0.6851076842317099,2.3701560197254685,0,0,0,1
-0.6894974746626591,-0.6409695842317099,1.302501719725469,0,0,0,1
-0.5063910346626591,0.11888201576829013,-1.293929380274531,0,0,0,1
-1.094157674662659,-0.19663530423170988,0.15387120972546878,0,0,0,1
-1.020642774662659,-0.38471688423170985,2.1712095197254686,0,0,0,1
-1.397954474662659,-0.6379154842317099,1.9045178197254689,0,0,0,1
-1.096538974662659,-0.36901603423170987,0.8158095197254688,0,0,0,1
-1.096538974662659,-0.36901603423170987,0.8158095197254688,0,0,0,1
1.618692925337341,0.6200455657682902,-2.1569051802745314,0,0,0,1
1.618692925337341,0.6200455657682902,-2.1569051802745314,0,0,0,1
1.692497725337341,1.17855591576829,-0.7069138802745312,0,0,0,1
0.8927731653373409,1.12463441576829,0.40626656972546876,0,0,0,1
-0.8272518746626591,0.35912899576829016,0.34458496972546876,0,0,0,1
0.4970574253373409,-0.5043921842317098,-0.0044325009745312255,0,0,0,1
1.124273825337341,-0.09165984423170986,0.26138171972546875,0,0,0,1
1.124273825337341,-0.09165984423170986,0.26138171972546875,0,0,0,1
0.6873183253373409,0.16679674576829012,-0.8356524802745312,0,0,0,1
0.4299283253373409,0.3968762357682901,-0.8867770802745312,0,0,0,1
-0.049846154662659105,-0.04681385723170987,0.4832434597254688,0,0,0,1
-0.8218321746626591,-0.21821324423170987,1.0197813197254688,0,0,0,1
-0.8912091046626591,-1.38956178423171,-2.3183121802745315,0,0,0,1
0.2567496453373409,-0.25948835423170985,1.091124619725469,0,0,0,1
0.2567496453373409,-0.25948835423170985,1.091124619725469,0,0,0,1
1.942649425337341,1.1616942157682901,1.0496329197254688,0,0,0,1
1.942649425337341,1.1616942157682901,1.0496329197254688,0,0,0,1
-1.535190074662659,1.2187076157682901,-5.1627752802745315,0,0,0,1
-4.1638102746626595,-0.43102420423170984,3.9057221197254686,0,0,0,1
-4.1638102746626595,-0.43102420423170984,3.9057221197254686,0,0,0,1
-0.5124211146626592,-0.8460434842317098,2.2597833197254684,0,0,0,1
4.861455425337341,-0.01419257023170987,-6.080091680274531,0,0,0,1
4.898345525337341,0.24807040576829012,-4.693506680274531,0,0,0,1
-2.7721113746626593,0.12023197576829013,2.1540541197254686,0,0,0,1
-2.7721113746626593,0.12023197576829013,2.1540541197254686,0,0,0,1
-2.7721113746626593,0.12023197576829013,2.1540541197254686,0,0,0,1
-2.0392269746626592,-0.7310949342317099,0.7222935797254688,0,0,0,1
-2.0392269746626592,-0.7310949342317099,0.7222935797254688,0,0,0,1
0.13867904533734088,0.7411035157682901,-0.13343302027453122,0,0,0,1
3.063762225337341,0.8480915157682901,-0.7584026202745312,0,0,0,1
3.785490525337341,-0.21090758423170988,-3.0427836802745314,0,0,0,1
1.225161125337341,-0.7103973442317099,0.47596381972546875,0,0,0,1
-0.6637806746626591,-0.7017261842317098,0.14775183972546876,0,0,0,1
-0.6637806746626591,-0.7017261842317098,0.14775183972546876,0,0,0,1
-2.580911574662659,0.27310695576829014,2.2900385197254685,0,0,0,1
-1.793450774662659,0.8606455557682902,2.3270233197254684,0,0,0,1
0.2213997953373409,0.2112972657682901,-1.6905958802745311,0,0,0,1
2.571918025337341,-0.6569971842317098,-2.9280374802745315,0,0,0,1
2.2606197253373406,-0.6401936242317099,-1.918924080274531,0,0,0,1
0.9325366253373409,0.6173868157682901,2.5181505197254688,0,0,0,1
-0.6539320746626591,0.8431297757682902,2.7429091197254687,0,0,0,1
-1.232808574662659,-0.17396110423170988,0.4849555197254688,0,0,0,1
1.699101925337341,-1.08113418423171,2.3943788197254685,0,0,0,1
-0.0553355046626591,-0.1815131442317099,-2.3930490802745314,0,0,0,1
-0.0553355046626591,-0.1815131442317099,-2.3930490802745314,0,0,0,1
1.312984025337341,1.07498361576829,2.683691319725469,0,0,0,1
3.992125025337341,2.6073949157682903,2.6614633197254687,0,0,0,1
0.05585242933734089,2.0352469157682904,2.0867636197254686,0,0,0,1
0.9650426253373409,-2.5285186842317096,3.5324593197254686,0,0,0,1
0.9665675253373409,-2.5030993842317097,3.5131402197254684,0,0,0,1
0.4655890653373409,1.31423341576829,0.6872270197254688,0,0,0,1
3.8909927253373406,0.7829342657682902,-0.029002280274531226,0,0,0,1
2.662023125337341,-0.005077254231709872,-0.7410113802745312,0,0,0,1
-1.423110474662659,-0.6508640842317098,-2.9091899802745314,0,0,0,1
-1.423110474662659,-0.6508640842317098,-2.9091899802745314,0,0,0,1
-3.1706261746626594,0.8576999157682902,0.055411429725468773,0,0,0,1
-3.1706261746626594,0.8576999157682902,0.055411429725468773,0,0,0,1
-0.6246552346626592,0.6225672157682901,-0.31636381027453125,0,0,0,1
