acc_x,acc_y,acc_z,gyro_x,gyro_y,gyro_z,label
-0.6043581746626591,-0.6045348442317099,0.7460046697254689,0,0,0,1
-0.6043581746626591,-0.6045348442317099,0.7460046697254689,0,0,0,1
-0.6043581746626591,-0.6045348442317099,0.7460046697254689,0,0,0,1
0.2036252253373409,-0.46992418423170984,0.39355488972546876,0,0,0,1
0.8186011253373409,0.16076471576829013,-0.28976278027453123,0,0,0,1
0.8186011253373409,0.16076471576829013,-0.28976278027453123,0,0,0,1
0.8186011253373409,0.16076471576829013,-0.28976278027453123,0,0,0,1
-0.1678347446626591,0.30903484576829016,-0.07379130027453124,0,0,0,1
-0.1678347446626591,0.30903484576829016,-0.07379130027453124,0,0,0,1
0.28562785533734086,0.1864342857682901,0.07765027972546877,0,0,0,1
0.5191455253373409,0.34511889576829013,-0.011672766574531226,0,0,0,1
0.43774558533734087,0.47515251576829015,0.012393681725468775,0,0,0,1
0.43774558533734087,0.47515251576829015,0.012393681725468775,0,0,0,1
0.43774558533734087,0.47515251576829015,0.012393681725468775,0,0,0,1
-0.2978710946626591,0.12699546576829013,0.21560844972546878,0,0,0,1
0.024395482337340894,0.16562594576829012,-0.05284622427453122,0,0,0,1
0.5049863253373409,0.5643114157682901,0.29163666972546876,0,0,0,1
-0.6276564446626591,0.46243478576829017,-0.8478954102745312,0,0,0,1
-1.370489574662659,-0.01820228623170987,-0.2901919202745312,0,0,0,1
-1.370489574662659,-0.01820228623170987,-0.2901919202745312,0,0,0,1
-0.8294491746626591,-0.43203138423170984,0.5924894497254688,0,0,0,1
-1.096780274662659,-0.4954330142317099,-0.46110061027453125,0,0,0,1
-1.096780274662659,-0.4954330142317099,-0.46110061027453125,0,0,0,1
-0.5381092746626591,-0.5058932842317099,-0.5848429802745312,0,0,0,1
-0.8019795246626591,-0.5148577842317098,-0.38975933027453125,0,0,0,1
-0.8019795246626591,-0.5148577842317098,-0.38975933027453125,0,0,0,1
-0.8019795246626591,-0.5148577842317098,-0.38975933027453125,0,0,0,1
-0.9437041146626591,-0.43849180423170986,-0.38315132027453125,0,0,0,1
-1.641038374662659,0.6443159757682901,-0.5366900302745312,0,0,0,1
-1.396780474662659,0.8124385157682902,0.049613682725468775,0,0,0,1
2.3125062253373407,-0.3478008342317099,1.4003283197254688,0,0,0,1
2.3125062253373407,-0.3478008342317099,1.4003283197254688,0,0,0,1
2.314911425337341,-0.8337776442317099,-0.5776345802745312,0,0,0,1
-0.6992354246626591,-0.5506977842317099,0.42967041972546877,0,0,0,1
-0.6992354246626591,-0.5506977842317099,0.42967041972546877,0,0,0,1
-2.2104672746626592,-0.6510704842317099,1.116975519725469,0,0,0,1
3.8755145253373406,-0.20649753423170988,-1.0713031802745312,0,0,0,1
3.8755145253373406,-0.20649753423170988,-1.0713031802745312,0,0,0,1
-0.7796511746626591,-0.02338944023170987,2.3856728197254684,0,0,0,1
3.5128179253373406,-0.8792156842317098,-0.6816549802745312,0,0,0,1
3.5128179253373406,-0.8792156842317098,-0.6816549802745312,0,0,0,1
1.875786325337341,0.19098724576829013,0.6845726697254688,0,0,0,1
0.8031506653373409,0.5519745557682901,0.7406335797254688,0,0,0,1
0.8031506653373409,0.5519745557682901,0.7406335797254688,0,0,0,1
-0.9757933746626591,1.27259621576829,-0.2676748302745312,0,0,0,1
-1.000617474662659,1.33662521576829,0.39507123972546876,0,0,0,1
0.6400466253373409,-0.5542434842317099,0.5301320197254689,0,0,0,1
0.6400466253373409,-0.5542434842317099,0.5301320197254689,0,0,0,1
0.7788920553373408,-0.8989376842317098,0.4045562397254688,0,0,0,1
-0.24681042466265912,-0.5901310242317098,0.13627477972546878,0,0,0,1
-0.24681042466265912,-0.5901310242317098,0.13627477972546878,0,0,0,1
-0.8348049746626591,-0.06433878423170987,0.9021410597254689,0,0,0,1
-1.850505774662659,-0.07083330423170987,-0.0034230068745312254,0,0,0,1
-0.5630526346626591,-0.08800600423170987,1.531894419725469,0,0,0,1
1.621719825337341,-0.6886299842317098,-0.8434820502745312,0,0,0,1
1.621719825337341,-0.6886299842317098,-0.8434820502745312,0,0,0,1
0.8025708253373409,0.36568321576829016,-0.8261959802745312,0,0,0,1
-2.2275566746626594,0.8249682157682902,1.523922219725469,0,0,0,1
-2.2275566746626594,0.8249682157682902,1.523922219725469,0,0,0,1
-2.989625474662659,0.28848924576829016,0.17713698972546876,0,0,0,1
-1.301856474662659,-0.48771993423170984,-0.8301134402745312,0,0,0,1
1.839754625337341,-0.5466665842317099,-0.37947300027453124,0,0,0,1
1.710061525337341,-0.15523944423170988,-1.3468010802745312,0,0,0,1
0.45018054533734086,0.6968437657682901,0.07799621972546877,0,0,0,1
0.45018054533734086,0.6968437657682901,0.07799621972546877,0,0,0,1
-2.7308864746626593,1.0476856157682901,-0.6196961802745312,0,0,0,1
0.11835242933734089,-0.6100232442317098,-0.3790994002745312,0,0,0,1
0.11835242933734089,-0.6100232442317098,-0.3790994002745312,0,0,0,1
2.498983925337341,-1.06713898423171,-2.1130621802745315,0,0,0,1
2.1476750253373407,-0.20096288423170988,-0.5832991802745312,0,0,0,1
0.17057468533734088,0.5164106157682902,-0.7280175802745312,0,0,0,1
-0.7858538746626591,0.4320525157682901,-0.9865451202745312,0,0,0,1
-0.19300793466265911,0.17956771576829011,0.24189671972546878,0,0,0,1
0.1355662553373409,-0.2636229842317099,0.26257641972546875,0,0,0,1
0.5982413253373409,-0.24686525423170988,-0.49676731027453125,0,0,0,1
1.033086325337341,0.6441526557682902,-1.4905478802745311,0,0,0,1
1.033086325337341,0.6441526557682902,-1.4905478802745311,0,0,0,1
0.009258763337340895,0.6595574757682902,-0.8089928802745312,0,0,0,1
-1.452148874662659,-0.30388103423170987,0.7775643797254689,0,0,0,1
-1.452148874662659,-0.30388103423170987,0.7775643797254689,0,0,0,1
0.024817959337340895,-0.39177535423170984,1.5973651197254688,0,0,0,1
1.040001425337341,-0.07744489423170987,-1.8546044802745312,0,0,0,1
1.920531725337341,0.26836289576829014,-0.8979811802745312,0,0,0,1
1.920531725337341,0.26836289576829014,-0.8979811802745312,0,0,0,1
-0.07914779966265911,-0.030029517231709872,0.17998119972546878,0,0,0,1
-0.8805737346626591,0.07398142576829013,1.382701619725469,0,0,0,1
-1.476176274662659,0.28432216576829017,0.21966024972546877,0,0,0,1
1.070015425337341,0.33099653576829013,-0.7351989802745311,0,0,0,1
1.844937825337341,-0.04619489423170987,0.19348474972546878,0,0,0,1
1.844937825337341,-0.04619489423170987,0.19348474972546878,0,0,0,1
1.228638225337341,-0.40764978423170983,0.9185416197254688,0,0,0,1
-0.46705292466265913,-0.1300941542317099,0.7047357197254688,0,0,0,1
-0.46705292466265913,-0.1300941542317099,0.7047357197254688,0,0,0,1
0.49940062533734086,-0.7228242842317099,-1.0236234802745312,0,0,0,1
1.382645125337341,-0.9781136342317098,-0.47325304027453124,0,0,0,1
1.382645125337341,-0.9781136342317098,-0.47325304027453124,0,0,0,1
1.057198025337341,-0.9355814842317098,0.27999481972546875,0,0,0,1
-0.9950604246626591,-0.9724402242317098,0.06901499472546876,0,0,0,1
-0.29814575466265913,-1.05214208423171,0.3736327597254688,0,0,0,1
-0.29814575466265913,-1.05214208423171,0.3736327597254688,0,0,0,1
1.541570225337341,-0.36849592423170985,-1.6435470802745311,0,0,0,1
1.337188225337341,-0.07222799423170986,-1.4081892802745313,0,0,0,1
0.12409164533734088,-0.30730311423170986,-0.9492507302745312,0,0,0,1
-1.656038274662659,-0.9456560442317099,0.9574708597254689,0,0,0,1
-1.656038274662659,-0.9456560442317099,0.9574708597254689,0,0,0,1
1.084591425337341,-1.01197528423171,-0.7845938802745311,0,0,0,1
1.211819225337341,-0.48394240423170987,-1.6444237802745312,0,0,0,1
1.211819225337341,-0.48394240423170987,-1.6444237802745312,0,0,0,1
-1.760642474662659,-0.18610165423170988,0.24035593972546876,0,0,0,1
-1.619036174662659,-0.16950909423170987,0.45033308972546876,0,0,0,1
-1.619036174662659,-0.16950909423170987,0.45033308972546876,0,0,0,1
1.510527125337341,-0.7356735242317098,-0.4177995002745312,0,0,0,1
1.328214225337341,-0.5619600842317098,-0.2681284302745312,0,0,0,1
0.4001889253373409,-0.5037565842317099,-0.6977615802745312,0,0,0,1
0.24796916533734087,-0.1515692542317099,-0.30197623027453124,0,0,0,1
0.3777623253373409,-0.9047324442317098,-0.9988463202745311,0,0,0,1
0.3777623253373409,-0.9047324442317098,-0.9988463202745311,0,0,0,1
0.1740546353373409,-0.2430513042317099,1.4728162197254688,0,0,0,1
2.339943425337341,-0.8634677842317099,-0.7826159302745311,0,0,0,1
1.064611925337341,-0.7265458842317098,-0.10845283027453123,0,0,0,1
-0.7710823746626592,-0.5382027442317099,0.6657745497254688,0,0,0,1
-1.829260274662659,-0.5163910242317099,0.3629629197254688,0,0,0,1
-1.829260274662659,-0.5163910242317099,0.3629629197254688,0,0,0,1
0.7880339753373409,0.10325016576829013,-0.29273871027453124,0,0,0,1
1.717719525337341,0.06439201876829012,-1.662352080274531,0,0,0,1
1.996292725337341,0.2388361257682901,-0.6189468202745312,0,0,0,1
1.000471625337341,0.10174881576829013,-0.09629133527453122,0,0,0,1
-0.4448046546626591,-0.28581668423170986,-0.3823836202745312,0,0,0,1
-0.9595408246626591,0.09213252576829013,1.3239642197254688,0,0,0,1
-0.9595408246626591,0.09213252576829013,1.3239642197254688,0,0,0,1
-1.106299874662659,0.2339776057682901,0.7886053197254689,0,0,0,1
1.056260625337341,-0.01500798423170987,-0.8003893202745311,0,0,0,1
0.7846169653373409,0.5314737757682901,-0.5000656002745312,0,0,0,1
-0.2277140446626591,0.47767268576829014,-0.4982138002745312,0,0,0,1
-0.2277140446626591,0.47767268576829014,-0.4982138002745312,0,0,0,1
-0.5747856746626591,0.11766183576829013,0.7398590697254688,0,0,0,1
-0.6499962746626591,-0.02871472823170987,0.7527344197254688,0,0,0,1
0.9959864753373409,-0.42955558423170986,-0.4793162802745312,0,0,0,1
0.9959864753373409,-0.42955558423170986,-0.4793162802745312,0,0,0,1
0.9423461253373409,-1.01727748423171,-1.2354197802745313,0,0,0,1
-0.0541043116626591,1.09058571576829,0.8974603197254688,0,0,0,1
-0.0541043116626591,1.09058571576829,0.8974603197254688,0,0,0,1
-0.0541043116626591,1.09058571576829,0.8974603197254688,0,0,0,1
-2.426138874662659,1.75284401576829,-0.014074833774531226,0,0,0,1
-0.8398642346626591,-0.013314035231709872,0.8275626597254688,0,0,0,1
-0.8398642346626591,-0.013314035231709872,0.8275626597254688,0,0,0,1
3.532999525337341,-0.7294448442317099,-0.6831858502745312,0,0,0,1
3.532999525337341,-0.7294448442317099,-0.6831858502745312,0,0,0,1
-0.5625090446626592,0.013014871768290128,-1.2418646802745312,0,0,0,1
-1.987896874662659,0.6865077157682902,1.0188765197254688,0,0,0,1
-1.987896874662659,0.6865077157682902,1.0188765197254688,0,0,0,1
-1.764121074662659,0.3374464657682901,1.6109768197254688,0,0,0,1
0.49488975533734086,-0.16092569423170988,1.1156698197254689,0,0,0,1
0.49488975533734086,-0.16092569423170988,1.1156698197254689,0,0,0,1
2.994529225337341,-0.34988378423170985,-1.9198937802745313,0,0,0,1
3.198821525337341,0.41373063576829017,-0.4187546102745312,0,0,0,1
3.198821525337341,0.41373063576829017,-0.4187546102745312,0,0,0,1
-2.1746362746626593,0.29430231576829013,-0.14180926027453122,0,0,0,1
-2.1746362746626593,0.29430231576829013,-0.14180926027453122,0,0,0,1
-2.553264574662659,-0.4700585842317099,0.7515759197254688,0,0,0,1
1.297101525337341,-0.7820284142317099,-1.040742880274531,0,0,0,1
1.297855825337341,-0.7747060842317098,-1.0374052802745313,0,0,0,1
1.297855825337341,-0.7747060842317098,-1.0374052802745313,0,0,0,1
