acc_x,acc_y,acc_z,gyro_x,gyro_y,gyro_z,label
2.412496125337341,-2.04789848423171,-1.0031881802745313,0,0,0,1
2.1976752253373406,-0.5283736842317098,-1.5675983802745312,0,0,0,1
-4.556229274662659,0.37455191576829017,4.007172819725469,0,0,0,1
-4.556229274662659,0.37455191576829017,4.007172819725469,0,0,0,1
-3.806658774662659,-0.21723560423170987,2.7263410197254685,0,0,0,1
-3.806658774662659,-0.21723560423170987,2.7263410197254685,0,0,0,1
-3.806658774662659,-0.21723560423170987,2.7263410197254685,0,0,0,1
4.729818725337341,1.63985011576829,-2.3854029802745313,0,0,0,1
4.729818725337341,1.63985011576829,-2.3854029802745313,0,0,0,1
3.4304080253373406,2.25594191576829,-2.1117000802745314,0,0,0,1
1.446030125337341,1.99520641576829,-0.47496912027453125,0,0,0,1
1.446030125337341,1.99520641576829,-0.47496912027453125,0,0,0,1
-5.647039874662659,0.6037379657682902,1.814820019725469,0,0,0,1
-3.3375539746626592,-0.34099851423170985,1.0306038197254688,0,0,0,1
-3.3375539746626592,-0.34099851423170985,1.0306038197254688,0,0,0,1
0.6462388253373409,-0.04979990123170987,0.32663484972546875,0,0,0,1
6.021768125337341,0.8740743557682902,-3.3509816802745314,0,0,0,1
3.165938825337341,0.34111781576829014,-0.7407570802745311,0,0,0,1
-1.765784674662659,-0.5131523842317098,-0.9102503402745312,0,0,0,1
-5.327773274662659,0.10548477576829013,3.8771093197254687,0,0,0,1
-9.844750274662658,-0.45708684423170987,4.156811319725469,0,0,0,1
-10.312532274662658,-2.38076508423171,2.7805361197254688,0,0,0,1
-1.234007374662659,-0.22947434423170987,3.5535130197254685,0,0,0,1
-1.234007374662659,-0.22947434423170987,3.5535130197254685,0,0,0,1
3.135108525337341,1.0178971157682901,-2.1424772802745315,0,0,0,1
3.135108525337341,1.0178971157682901,-2.1424772802745315,0,0,0,1
3.964937725337341,-2.19611668423171,-3.034126580274531,0,0,0,1
0.9012208253373409,-2.7901324842317097,-0.5986480802745312,0,0,0,1
0.9012208253373409,-2.7901324842317097,-0.5986480802745312,0,0,0,1
-11.045965274662658,0.09226407576829013,3.9252398197254688,0,0,0,1
-2.011100274662659,1.95557141576829,-2.1184408802745316,0,0,0,1
3.987957525337341,0.8273024157682901,-3.6522095802745316,0,0,0,1
9.113894725337342,0.7089522157682902,-0.40238211027453125,0,0,0,1
9.020446725337342,0.12796108576829013,-3.7008092802745316,0,0,0,1
7.601193725337341,-0.46024594423170984,-4.7882392802745315,0,0,0,1
5.68533942533734,-0.48372528423170985,-0.19737968027453123,0,0,0,1
-0.39812515466265913,-0.4252526542317099,0.5337695197254688,0,0,0,1
-0.39812515466265913,-0.4252526542317099,0.5337695197254688,0,0,0,1
-8.781234274662658,1.66643741576829,4.618723619725468,0,0,0,1
-7.024338274662659,1.7332096157682901,4.764258319725468,0,0,0,1
-3.605621774662659,0.5244660157682901,0.5187496797254688,0,0,0,1
0.8154092253373408,-0.06686441423170987,-3.7676959802745316,0,0,0,1
6.118198725337341,-0.1447058142317099,-1.1550661802745312,0,0,0,1
4.961047725337341,-0.25179104423170984,-2.0779852802745316,0,0,0,1
1.676063125337341,-0.4156763842317099,-0.6627963802745311,0,0,0,1
1.676063125337341,-0.4156763842317099,-0.6627963802745311,0,0,0,1
-3.2788338746626593,0.5441702157682902,2.9791519197254686,0,0,0,1
-7.767449274662659,1.68130871576829,2.2378953197254687,0,0,0,1
-4.5305112746626595,-0.00847039773170987,0.25645773972546876,0,0,0,1
-4.5305112746626595,-0.00847039773170987,0.25645773972546876,0,0,0,1
-0.9206032746626591,-0.29783121423170983,0.7074707197254688,0,0,0,1
1.933603725337341,-0.6638822842317098,-1.963628280274531,0,0,0,1
5.29247142533734,-1.96988528423171,-2.8145782802745316,0,0,0,1
5.102040725337341,-1.03729558423171,-0.6856541802745312,0,0,0,1
1.471192825337341,0.7352951157682901,-0.19223061027453123,0,0,0,1
1.471192825337341,0.7352951157682901,-0.19223061027453123,0,0,0,1
-5.17104827466266,1.06479561576829,3.4329093197254688,0,0,0,1
-5.17104827466266,1.06479561576829,3.4329093197254688,0,0,0,1
-4.290591674662659,0.2320045457682901,1.8939993197254688,0,0,0,1
-1.501464374662659,-0.25063810423170985,0.5376869697254688,0,0,0,1
2.199570225337341,0.17445864576829012,-0.5545751202745312,0,0,0,1
4.428597025337341,-0.2586393142317099,-1.973487980274531,0,0,0,1
4.665327725337341,-0.41939078423170983,-3.4312617802745313,0,0,0,1
3.911605325337341,0.09552981576829013,-2.039732980274531,0,0,0,1
2.123285725337341,0.9153708157682902,0.19225966972546876,0,0,0,1
-1.398058374662659,0.8959670157682902,-0.3405039802745312,0,0,0,1
-3.4791669746626592,0.6910047757682901,3.2622096197254686,0,0,0,1
-2.551028674662659,0.33365024576829017,3.055152619725469,0,0,0,1
-2.551028674662659,0.33365024576829017,3.055152619725469,0,0,0,1
-0.8592533746626592,0.29872627576829014,-0.24317992027453122,0,0,0,1
3.538525125337341,0.25362627576829017,-1.5689398802745311,0,0,0,1
3.538525125337341,0.25362627576829017,-1.5689398802745311,0,0,0,1
-0.9381222746626591,-0.2195564342317099,0.22212701972546878,0,0,0,1
-0.9381222746626591,-0.2195564342317099,0.22212701972546878,0,0,0,1
-1.829851574662659,0.1551989457682901,-0.29540694027453124,0,0,0,1
-2.2999629746626593,1.19148761576829,0.08549969972546877,0,0,0,1
-1.648144274662659,1.72571521576829,0.31288864972546876,0,0,0,1
1.386018325337341,-0.30470846423170983,0.4023561497254688,0,0,0,1
1.451139025337341,-0.34535930423170985,0.6288653897254688,0,0,0,1
1.011946225337341,-0.5072381842317099,0.07617362972546877,0,0,0,1
0.10682250533734089,-0.8415464842317099,-0.5375702802745311,0,0,0,1
0.10682250533734089,-0.8415464842317099,-0.5375702802745311,0,0,0,1
-0.9663510146626592,-0.8019346442317099,-0.6068659102745312,0,0,0,1
-0.6204046746626591,0.38931457576829015,1.042620419725469,0,0,0,1
0.5052561953373409,0.6370268157682901,-1.2690222802745312,0,0,0,1
0.5052561953373409,0.6370268157682901,-1.2690222802745312,0,0,0,1
1.616697825337341,0.09593575076829013,-0.6525083502745311,0,0,0,1
1.527718125337341,-0.6210590442317099,1.3601443197254688,0,0,0,1
1.527718125337341,-0.6210590442317099,1.3601443197254688,0,0,0,1
0.3880267253373409,0.34530623576829017,1.196004819725469,0,0,0,1
0.3880267253373409,0.34530623576829017,1.196004819725469,0,0,0,1
-1.207543874662659,0.7712084857682902,-0.9592777202745312,0,0,0,1
-0.9563269746626591,-0.46340463423170986,0.5920936797254688,0,0,0,1
0.3321461853373409,-0.5473963842317099,1.8786411197254689,0,0,0,1
0.9573130753373409,-0.19578508423170987,0.17543480972546877,0,0,0,1
0.9573130753373409,-0.19578508423170987,0.17543480972546877,0,0,0,1
-0.8496098346626592,1.10000961576829,-0.18708095027453123,0,0,0,1
-1.442595974662659,-0.39953045423170985,0.20366605972546878,0,0,0,1
-0.6184515746626591,-1.54796948423171,0.26923711972546877,0,0,0,1
0.8006768253373409,-1.12862108423171,1.752373219725469,0,0,0,1
0.7045636253373408,1.04727401576829,-0.13766316027453124,0,0,0,1
0.7045636253373408,1.04727401576829,-0.13766316027453124,0,0,0,1
0.6901488253373409,0.25119559576829015,0.13027582972546878,0,0,0,1
0.0762677353373409,-1.11349578423171,0.2893470197254688,0,0,0,1
-0.4598584046626591,-0.7469176842317099,0.8737666197254689,0,0,0,1
-0.9940342746626591,0.21524308576829013,0.2668002497254688,0,0,0,1
-0.9940342746626591,0.21524308576829013,0.2668002497254688,0,0,0,1
1.721044125337341,0.2337724157682901,0.05915411972546878,0,0,0,1
1.771935925337341,0.04743828176829013,-0.7941934802745312,0,0,0,1
1.771935925337341,0.04743828176829013,-0.7941934802745312,0,0,0,1
0.0842032593373409,0.06863712076829014,-0.6542589802745312,0,0,0,1
-0.8226895146626592,0.04404189076829013,0.6885655797254688,0,0,0,1
-1.468273574662659,0.00866689126829013,-0.4608131802745312,0,0,0,1
0.5279746253373409,0.02790238276829013,0.34800788972546876,0,0,0,1
0.5279746253373409,0.02790238276829013,0.34800788972546876,0,0,0,1
0.1469559853373409,0.7182446157682901,2.4749703197254687,0,0,0,1
0.1469559853373409,0.7182446157682901,2.4749703197254687,0,0,0,1
-1.499184074662659,0.9943439157682902,1.9477140197254688,0,0,0,1
-1.499184074662659,0.9943439157682902,1.9477140197254688,0,0,0,1
0.7989859753373408,-1.61574108423171,-0.4182401302745312,0,0,0,1
-0.21523617466265912,-0.5896560842317099,1.717463219725469,0,0,0,1
-1.439162674662659,0.23359473576829012,0.9592430197254688,0,0,0,1
-1.711949774662659,0.31627913576829014,-1.4021739802745312,0,0,0,1
-1.711949774662659,0.31627913576829014,-1.4021739802745312,0,0,0,1
2.205728025337341,0.29313414576829017,-0.16317466027453123,0,0,0,1
2.205728025337341,0.29313414576829017,-0.16317466027453123,0,0,0,1
-0.20923374466265912,1.0095720157682901,-0.3127310002745312,0,0,0,1
-1.728589474662659,1.32365501576829,-0.6159844802745311,0,0,0,1
-1.728589474662659,1.32365501576829,-0.6159844802745311,0,0,0,1
-1.464692574662659,1.47815611576829,1.0104886197254688,0,0,0,1
-0.8075947746626592,0.7217254857682901,0.4976770597254688,0,0,0,1
0.9099345253373409,0.22847491576829013,-0.9516210302745312,0,0,0,1
0.9099345253373409,0.22847491576829013,-0.9516210302745312,0,0,0,1
0.9099345253373409,0.22847491576829013,-0.9516210302745312,0,0,0,1
1.285838625337341,0.3047512157682901,-0.10496035027453123,0,0,0,1
0.2808795253373409,0.25819141576829013,-0.9172289802745311,0,0,0,1
-0.5493254746626591,-0.012323272231709871,-0.3101976802745312,0,0,0,1
-0.7748856346626591,0.09810079976829013,1.3288673197254688,0,0,0,1
0.4275546253373409,0.36116341576829014,-0.015050353274531227,0,0,0,1
2.047691725337341,0.4025844157682901,-1.7055075802745312,0,0,0,1
2.047691725337341,0.4025844157682901,-1.7055075802745312,0,0,0,1
2.047691725337341,0.4025844157682901,-1.7055075802745312,0,0,0,1
0.4442467853373409,-0.22343446423170987,-1.4149861802745312,0,0,0,1
-1.352412674662659,-0.7059499842317098,0.9912462197254688,0,0,0,1
-2.8208188746626592,-0.7473072242317098,1.502904519725469,0,0,0,1
-0.0005268889626591057,-0.006532978231709872,0.5828717197254688,0,0,0,1
-0.0005268889626591057,-0.006532978231709872,0.5828717197254688,0,0,0,1
2.773187225337341,0.6093549157682902,-1.541456280274531,0,0,0,1
2.773187225337341,0.6093549157682902,-1.541456280274531,0,0,0,1
0.8068156253373409,-0.37633226423170985,-1.236869980274531,0,0,0,1
-0.8159632746626592,-1.3248986842317099,0.28370403972546876,0,0,0,1
-2.558348674662659,-1.50775058423171,1.4996095197254689,0,0,0,1
-3.230954174662659,-1.24961658423171,1.9515893197254688,0,0,0,1
-3.230954174662659,-1.24961658423171,1.9515893197254688,0,0,0,1
1.751291725337341,1.83442591576829,-2.134256880274531,0,0,0,1
1.751291725337341,1.83442591576829,-2.134256880274531,0,0,0,1
2.3592648253373407,1.97188811576829,-1.5352778802745313,0,0,0,1
-0.03843544466265911,0.5409638157682901,0.9218506197254688,0,0,0,1
-0.03843544466265911,0.5409638157682901,0.9218506197254688,0,0,0,1
-1.042662174662659,1.09768681576829,2.9894559197254686,0,0,0,1
-2.085154474662659,1.26311021576829,0.8719949197254688,0,0,0,1
-1.275275674662659,1.14281621576829,-1.1483465802745312,0,0,0,1
0.7070641653373408,1.50172811576829,-0.5279735802745312,0,0,0,1
0.7070641653373408,1.50172811576829,-0.5279735802745312,0,0,0,1
0.5341963953373409,-0.47351516423170986,-1.8958332802745312,0,0,0,1
1.157596125337341,0.054713192768290134,1.1975736197254687,0,0,0,1
1.157596125337341,0.054713192768290134,1.1975736197254687,0,0,0,1
-1.560075274662659,0.8444829757682901,-0.017072798274531224,0,0,0,1
-1.560075274662659,0.8444829757682901,-0.017072798274531224,0,0,0,1
0.3923592753373409,0.06811745576829013,0.9027870197254688,0,0,0,1
1.096538125337341,-0.8325407842317099,-1.150717980274531,0,0,0,1
1.096538125337341,-0.8325407842317099,-1.150717980274531,0,0,0,1
0.46756698533734087,1.43977361576829,-0.30398771027453125,0,0,0,1
-0.9480242746626591,1.8374821157682901,-1.009082480274531,0,0,0,1
-0.9480242746626591,1.8374821157682901,-1.009082480274531,0,0,0,1
-1.165170174662659,-0.6725471842317099,-0.5475971402745312,0,0,0,1
1.134152925337341,-2.3246050842317096,0.9942284197254687,0,0,0,1
1.134152925337341,-2.3246050842317096,0.9942284197254687,0,0,0,1
1.406333425337341,-1.60610998423171,0.5019183197254689,0,0,0,1
1.223377725337341,0.22191453576829012,-0.7711895802745312,0,0,0,1
0.9071707853373409,1.41856941576829,-0.7090701802745312,0,0,0,1
-0.1907934946626591,1.21164211576829,-1.2747020802745312,0,0,0,1
-1.143902274662659,0.23583431576829011,-0.3292723802745312,0,0,0,1
-1.143902274662659,0.23583431576829011,-0.3292723802745312,0,0,0,1
-1.336766674662659,-0.28542066423170986,1.5923626197254688,0,0,0,1
0.3481288253373409,0.7254406157682901,-2.9109051802745314,0,0,0,1
0.3481288253373409,0.7254406157682901,-2.9109051802745314,0,0,0,1
0.7740407253373409,0.9556020657682901,-0.14560974027453122,0,0,0,1
-0.2280497346626591,0.5328787157682902,0.6300315497254688,0,0,0,1
-0.7754502146626591,-1.35561298423171,-0.45295370027453125,0,0,0,1
1.506331025337341,-0.7705989842317098,2.6268625197254685,0,0,0,1
0.49870352533734086,-0.7648378842317098,-0.07287651427453123,0,0,0,1
-1.441594574662659,-0.15921245423170988,-2.8236196802745313,0,0,0,1
-0.9544005246626591,-0.2443457242317099,1.050812419725469,0,0,0,1
-0.9544005246626591,-0.2443457242317099,1.050812419725469,0,0,0,1
2.396306525337341,-1.08642288423171,0.8577074697254689,0,0,0,1
1.285478125337341,-0.015120786231709872,-0.48141760027453123,0,0,0,1
1.285478125337341,-0.015120786231709872,-0.48141760027453123,0,0,0,1
-0.1595167946626591,0.6828825157682902,-1.859773380274531,0,0,0,1
-0.4579615446626591,0.8614183157682902,0.22168626972546876,0,0,0,1
-1.577650574662659,0.25360144576829013,0.43609007972546876,0,0,0,1
-1.827819774662659,-0.47936298423170987,0.13448435972546877,0,0,0,1
-0.1549572746626591,-1.30880978423171,1.4175906197254688,0,0,0,1
-0.1549572746626591,-1.30880978423171,1.4175906197254688,0,0,0,1
-0.48245285466265914,0.7091012157682901,0.6622848197254688,0,0,0,1
-0.42785595466265913,0.1502395757682901,0.35801551972546874,0,0,0,1
-0.42785595466265913,0.1502395757682901,0.35801551972546874,0,0,0,1
-0.42785595466265913,0.1502395757682901,0.35801551972546874,0,0,0,1
0.3996749053373409,-0.33309285423170987,-0.5054063802745312,0,0,0,1
2.1525254253373407,-0.23289961423170988,0.9029693197254688,0,0,0,1
0.05016090133734089,0.9767824557682901,-0.3708119802745312,0,0,0,1
2.224147325337341,0.6562607457682902,1.2455733197254688,0,0,0,1
2.224147325337341,0.6562607457682902,1.2455733197254688,0,0,0,1
0.8346972653373409,-0.3643819542317099,-1.439844780274531,0,0,0,1
0.9398999253373409,-0.6671131842317098,0.7583399697254688,0,0,0,1
-0.4980149146626591,-1.05462668423171,0.6538677497254688,0,0,0,1
-1.384038474662659,-0.7702113842317099,0.018714559725468774,0,0,0,1
-0.5580134246626591,-0.14176182423170988,0.9165991797254688,0,0,0,1
-0.5580134246626591,-0.14176182423170988,0.9165991797254688,0,0,0,1
-0.49093674466265913,0.8899400157682902,-1.2211750802745311,0,0,0,1
0.6764044953373409,0.44842991576829017,-0.11666539427453122,0,0,0,1
0.6764044953373409,0.44842991576829017,-0.11666539427453122,0,0,0,1
0.8656993253373408,-1.04949948423171,0.4260409797254688,0,0,0,1
0.7711854253373409,-0.7872856842317099,0.24724274972546878,0,0,0,1
0.7149806253373409,-0.3353484842317099,-0.5522288802745312,0,0,0,1
-0.17488334466265912,0.9821779157682902,0.13822298972546876,0,0,0,1
-0.17488334466265912,0.9821779157682902,0.13822298972546876,0,0,0,1
-1.081464274662659,1.00992011576829,0.37455801972546876,0,0,0,1
-1.081464274662659,1.00992011576829,0.37455801972546876,0,0,0,1
1.753780825337341,-1.14475698423171,-0.07221542427453123,0,0,0,1
1.744477725337341,-1.37996388423171,-0.9802550402745311,0,0,0,1
1.863066225337341,-0.5411878842317098,-0.20952606027453122,0,0,0,1
1.863066225337341,-0.5411878842317098,-0.20952606027453122,0,0,0,1
1.101402725337341,0.30447824576829013,-0.35377613027453125,0,0,0,1
-0.13211201466265912,1.00413871576829,-0.5156734802745312,0,0,0,1
0.5151848953373409,0.1611046657682901,-0.6295780802745312,0,0,0,1
0.5151848953373409,0.1611046657682901,-0.6295780802745312,0,0,0,1
0.5151848953373409,0.1611046657682901,-0.6295780802745312,0,0,0,1
0.4199156953373409,0.2721252357682901,-0.5593968802745312,0,0,0,1
0.06667663533734089,0.2194589557682901,0.17361343972546878,0,0,0,1
0.06667663533734089,0.2194589557682901,0.17361343972546878,0,0,0,1
-0.5200114046626592,-0.6620815842317098,-0.5303741802745312,0,0,0,1
-0.5200114046626592,-0.6620815842317098,-0.5303741802745312,0,0,0,1
-0.5200114046626592,-0.6620815842317098,-0.5303741802745312,0,0,0,1
1.155018325337341,-0.020471494231709873,0.4331172197254688,0,0,0,1
0.7146935653373409,-0.22767954423170988,-0.07562846027453123,0,0,0,1
0.7146935653373409,-0.22767954423170988,-0.07562846027453123,0,0,0,1
0.7146935653373409,-0.22767954423170988,-0.07562846027453123,0,0,0,1
-0.1197867246626591,-0.7674746842317098,0.6057154197254688,0,0,0,1
-0.1197867246626591,-0.7674746842317098,0.6057154197254688,0,0,0,1
0.5797066853373409,-0.7306381242317098,-0.16647193027453122,0,0,0,1
0.5870986253373409,-0.0061612542317098715,-0.8913772402745311,0,0,0,1
0.5427565753373409,0.8745597757682901,-0.19021580027453122,0,0,0,1
0.0876298113373409,1.08549091576829,0.41255428972546876,0,0,0,1
-0.4559483346626591,0.31518347576829014,-0.052739145274531225,0,0,0,1
0.6427455253373409,-1.28536238423171,-2.3477686802745312,0,0,0,1
1.622191925337341,0.002090740658290129,0.5170686197254688,0,0,0,1
0.6641974653373409,0.4585795557682901,0.5891973697254689,0,0,0,1
0.6641974653373409,0.4585795557682901,0.5891973697254689,0,0,0,1
-0.8251948146626591,-0.14212484423170987,-0.31007666027453124,0,0,0,1
-0.8251948146626591,-0.14212484423170987,-0.31007666027453124,0,0,0,1
-0.8251948146626591,-0.14212484423170987,-0.31007666027453124,0,0,0,1
-0.18817661466265911,-0.40750013423170983,1.306793419725469,0,0,0,1
0.6958995253373409,-0.5401067842317099,-0.8406448802745312,0,0,0,1
1.298125725337341,0.0012759153682901285,0.4705640397254688,0,0,0,1
-0.7204499046626591,0.16013522576829012,-0.056748988274531224,0,0,0,1
-0.1544728146626591,-0.06388832423170987,0.7317441197254688,0,0,0,1
0.3533129853373409,-0.21037770423170987,0.5039630197254689,0,0,0,1
0.3533129853373409,-0.21037770423170987,0.5039630197254689,0,0,0,1
0.9830994753373409,0.2414989157682901,0.7156242197254689,0,0,0,1
0.9830994753373409,0.2414989157682901,0.7156242197254689,0,0,0,1
