acc_x,acc_y,acc_z,gyro_x,gyro_y,gyro_z,label
0.9962058253373408,-0.6775538842317098,-0.09370592027453123,0,0,0,1
0.9962058253373408,-0.6775538842317098,-0.09370592027453123,0,0,0,1
2.2733217253373406,-0.03241677423170987,0.07052775972546876,0,0,0,1
0.7658724953373409,-0.47122348423170984,0.23587557972546877,0,0,0,1
-1.893835574662659,-0.7656767142317099,0.37766357972546877,0,0,0,1
-1.893835574662659,-0.7656767142317099,0.37766357972546877,0,0,0,1
0.8947243853373409,0.4493370857682901,0.04176398972546878,0,0,0,1
1.836636125337341,0.26907317576829015,-0.3370004002745312,0,0,0,1
1.836636125337341,0.26907317576829015,-0.3370004002745312,0,0,0,1
2.2323307253373406,-0.4120401242317099,-1.0858302802745312,0,0,0,1
-1.259605874662659,-0.35302091423170984,-0.8775615802745311,0,0,0,1
-1.263686674662659,-0.35885093423170983,-0.9081151802745312,0,0,0,1
-2.856775774662659,0.36020685576829015,0.6735223197254688,0,0,0,1
-2.856775774662659,0.36020685576829015,0.6735223197254688,0,0,0,1
-2.856775774662659,0.36020685576829015,0.6735223197254688,0,0,0,1
-2.856775774662659,0.36020685576829015,0.6735223197254688,0,0,0,1
3.750187425337341,0.2065869157682901,0.2954815897254688,0,0,0,1
3.750187425337341,0.2065869157682901,0.2954815897254688,0,0,0,1
4.577786025337341,0.17928415576829013,0.08614381972546876,0,0,0,1
0.4361262453373409,-1.87469218423171,-1.6464463802745313,0,0,0,1
-5.497525274662659,-0.5043998142317099,0.20400973972546876,0,0,0,1
-4.03767677466266,1.75810311576829,1.5793611197254689,0,0,0,1
0.2753968253373409,1.7770376157682901,2.0162520197254685,0,0,0,1
0.2753968253373409,1.7770376157682901,2.0162520197254685,0,0,0,1
3.6595836253373406,0.29565781576829014,0.48931553972546876,0,0,0,1
3.6595836253373406,0.29565781576829014,0.48931553972546876,0,0,0,1
4.624426425337341,-0.8086353342317099,0.3096509897254688,0,0,0,1
4.743586125337341,-1.10853298423171,-0.5111545802745312,0,0,0,1
4.743586125337341,-1.10853298423171,-0.5111545802745312,0,0,0,1
-4.7677392746626595,-0.02710581923170987,-0.6136639402745312,0,0,0,1
-4.7677392746626595,-0.02710581923170987,-0.6136639402745312,0,0,0,1
-1.740457074662659,0.6532993157682901,0.4259591397254688,0,0,0,1
1.541410925337341,0.23232923576829012,-0.03456703027453122,0,0,0,1
1.541410925337341,0.23232923576829012,-0.03456703027453122,0,0,0,1
3.5383497253373406,-0.40670428423170984,0.04739185972546878,0,0,0,1
3.5383497253373406,-0.40670428423170984,0.04739185972546878,0,0,0,1
3.443802325337341,-1.7177168842317099,-0.009574563874531225,0,0,0,1
1.115203425337341,-0.8300141842317098,0.16565748972546876,0,0,0,1
-1.414545474662659,1.01526711576829,0.30148521972546877,0,0,0,1
-1.414545474662659,1.01526711576829,0.30148521972546877,0,0,0,1
-2.6746978746626593,1.62805151576829,0.12974330972546877,0,0,0,1
-2.047530674662659,0.43069787576829016,-0.40712478027453125,0,0,0,1
-2.047530674662659,0.43069787576829016,-0.40712478027453125,0,0,0,1
-0.6544613746626591,-0.43210088423170984,-0.5547640802745312,0,0,0,1
-0.6544613746626591,-0.43210088423170984,-0.5547640802745312,0,0,0,1
1.099830125337341,-0.008262318231709871,-0.5014034802745312,0,0,0,1
2.9503322253373407,-0.25195125423170983,-0.34106688027453125,0,0,0,1
1.297313225337341,-0.5518220442317099,-1.1156179802745312,0,0,0,1
-2.215670574662659,-0.46014888423170985,1.124617619725469,0,0,0,1
-2.215670574662659,-0.46014888423170985,1.124617619725469,0,0,0,1
-1.550377374662659,1.24614441576829,1.0358779197254688,0,0,0,1
1.353268125337341,1.29816991576829,1.1262573197254688,0,0,0,1
1.353268125337341,1.29816991576829,1.1262573197254688,0,0,0,1
1.353268125337341,1.29816991576829,1.1262573197254688,0,0,0,1
3.5258422253373407,0.6567061757682902,0.20150848972546878,0,0,0,1
2.6137747253373407,0.33209546576829013,-0.9709903302745312,0,0,0,1
-1.022594874662659,-1.65421768423171,-2.1602504802745313,0,0,0,1
-1.022594874662659,-1.65421768423171,-2.1602504802745313,0,0,0,1
-1.022594874662659,-1.65421768423171,-2.1602504802745313,0,0,0,1
-1.933731074662659,-1.16718218423171,-0.8727554402745312,0,0,0,1
-2.745179274662659,0.9817959157682902,0.6585252597254688,0,0,0,1
-2.745179274662659,0.9817959157682902,0.6585252597254688,0,0,0,1
2.8189568253373407,1.6506187157682901,0.27798161972546875,0,0,0,1
3.973956625337341,-0.23100255423170987,-0.16594938027453124,0,0,0,1
1.965605225337341,-1.98215398423171,-1.3033804802745312,0,0,0,1
-0.8545422346626591,-3.4778942842317098,-0.9048955802745312,0,0,0,1
-4.376456274662659,-1.32848978423171,0.33932944972546875,0,0,0,1
-4.376456274662659,-1.32848978423171,0.33932944972546875,0,0,0,1
2.7238097253373406,2.08290091576829,0.9113105197254688,0,0,0,1
3.157097325337341,2.2799239157682902,0.25246068972546876,0,0,0,1
1.295784525337341,-1.45178438423171,-1.1858588802745311,0,0,0,1
-4.292915774662659,0.30211006576829014,-0.5985522802745312,0,0,0,1
-4.292915774662659,0.30211006576829014,-0.5985522802745312,0,0,0,1
-4.292915774662659,0.30211006576829014,-0.5985522802745312,0,0,0,1
2.0390229253373406,1.0727527157682901,-0.06327811027453123,0,0,0,1
2.0192047253373406,-0.1301432942317099,0.19153948972546878,0,0,0,1
2.0192047253373406,-0.1301432942317099,0.19153948972546878,0,0,0,1
2.585034825337341,-2.3240800842317095,0.3735643897254688,0,0,0,1
2.2276845253373407,-3.13371408423171,-0.06675187027453122,0,0,0,1
2.2276845253373407,-3.13371408423171,-0.06675187027453122,0,0,0,1
-1.358389374662659,-2.1167835842317095,-0.17651227027453123,0,0,0,1
-1.358389374662659,-2.1167835842317095,-0.17651227027453123,0,0,0,1
-1.500805374662659,0.32673244576829014,0.5393084597254688,0,0,0,1
-0.08540104466265912,1.15426851576829,0.5362233197254688,0,0,0,1
-0.08540104466265912,1.15426851576829,0.5362233197254688,0,0,0,1
-0.6136650746626591,0.41703029576829015,-0.26182261027453124,0,0,0,1
2.257041425337341,-0.5151073842317099,-0.42329398027453125,0,0,0,1
3.359949625337341,-0.6288822842317099,-0.7593927802745312,0,0,0,1
1.355829725337341,0.47931839576829016,-0.9814146802745312,0,0,0,1
-0.9005398746626591,0.9569884757682902,-0.3348335302745312,0,0,0,1
-2.367972874662659,0.39123358576829015,1.0203601197254688,0,0,0,1
-2.367972874662659,0.39123358576829015,1.0203601197254688,0,0,0,1
0.8555627253373409,-0.25220025423170983,-0.005625517674531225,0,0,0,1
0.8555627253373409,-0.25220025423170983,-0.005625517674531225,0,0,0,1
2.9010835253373406,-0.39753575423170984,-0.6071727802745311,0,0,0,1
2.9010835253373406,-0.39753575423170984,-0.6071727802745311,0,0,0,1
2.9010835253373406,-0.39753575423170984,-0.6071727802745311,0,0,0,1
3.0141120253373406,-0.9747417342317098,-1.4248347802745311,0,0,0,1
3.0141120253373406,-0.9747417342317098,-1.4248347802745311,0,0,0,1
3.0141120253373406,-0.9747417342317098,-1.4248347802745311,0,0,0,1
3.0141120253373406,-0.9747417342317098,-1.4248347802745311,0,0,0,1
1.121020825337341,-1.6632613842317099,-1.733659880274531,0,0,0,1
-3.114500074662659,1.26452361576829,0.6067144197254688,0,0,0,1
-0.031765444662659105,1.6697497157682901,1.2230318197254688,0,0,0,1
-0.031765444662659105,1.6697497157682901,1.2230318197254688,0,0,0,1
1.232746625337341,0.42870025576829013,0.7450998697254688,0,0,0,1
2.2652364253373407,-0.29110338423170984,-0.18218628027453124,0,0,0,1
3.330127225337341,-1.3293135842317099,-0.5515496802745312,0,0,0,1
-4.23714527466266,-0.16977591423170987,-0.6405133302745312,0,0,0,1
-4.23714527466266,-0.16977591423170987,-0.6405133302745312,0,0,0,1
-0.22576568466265912,2.01098471576829,0.47916355972546876,0,0,0,1
-0.2231583446626591,2.01225211576829,0.5003453797254688,0,0,0,1
-0.2231583446626591,2.01225211576829,0.5003453797254688,0,0,0,1
2.314499425337341,0.1612081157682901,-0.14118376027453122,0,0,0,1
2.314499425337341,0.1612081157682901,-0.14118376027453122,0,0,0,1
2.314499425337341,0.1612081157682901,-0.14118376027453122,0,0,0,1
2.970880025337341,-2.0946034842317096,-1.1285845802745311,0,0,0,1
2.970880025337341,-2.0946034842317096,-1.1285845802745311,0,0,0,1
2.970880025337341,-2.0946034842317096,-1.1285845802745311,0,0,0,1
-1.572593174662659,-1.43335738423171,0.5625631497254688,0,0,0,1
-1.399289574662659,2.22836191576829,0.7819978897254688,0,0,0,1
-0.7490906746626591,1.0446645157682901,0.44698318972546874,0,0,0,1
0.32665302533734086,-0.9475819842317098,-1.2882150802745311,0,0,0,1
0.32665302533734086,-0.9475819842317098,-1.2882150802745311,0,0,0,1
2.026335225337341,-1.0708952842317099,-1.1465098802745313,0,0,0,1
2.026335225337341,-1.0708952842317099,-1.1465098802745313,0,0,0,1
1.519677625337341,-0.38365308423170985,-1.0402988802745312,0,0,0,1
1.519677625337341,-0.38365308423170985,-1.0402988802745312,0,0,0,1
-0.19539402466265912,1.09732521576829,1.0930460197254688,0,0,0,1
-0.19539402466265912,1.09732521576829,1.0930460197254688,0,0,0,1
-0.19539402466265912,1.09732521576829,1.0930460197254688,0,0,0,1
-0.19539402466265912,1.09732521576829,1.0930460197254688,0,0,0,1
-0.2928376046626591,0.7098552757682901,1.2293547197254688,0,0,0,1
0.2611231953373409,-0.49328545423170983,-0.15731362027453122,0,0,0,1
1.187759925337341,-2.06860258423171,-0.49057178027453124,0,0,0,1
-0.5053286346626591,-2.12403768423171,-0.9807214802745312,0,0,0,1
-2.966677274662659,-0.5638693342317098,-1.1648889802745312,0,0,0,1
-2.966677274662659,-0.5638693342317098,-1.1648889802745312,0,0,0,1
-2.966677274662659,-0.5638693342317098,-1.1648889802745312,0,0,0,1
-1.528352274662659,0.9930286557682901,0.06734153472546878,0,0,0,1
-1.528352274662659,0.9930286557682901,0.06734153472546878,0,0,0,1
1.630424025337341,1.00459291576829,0.3353459497254688,0,0,0,1
0.3267369453373409,0.8852700157682901,-0.7377315802745312,0,0,0,1
0.3267369453373409,0.8852700157682901,-0.7377315802745312,0,0,0,1
-0.22846363466265912,-1.54393258423171,0.40049614972546876,0,0,0,1
-2.186693674662659,-0.46804283423170984,0.31047459972546876,0,0,0,1
-2.186693674662659,-0.46804283423170984,0.31047459972546876,0,0,0,1
2.413554725337341,0.17258994576829012,-0.37693778027453123,0,0,0,1
1.329142125337341,0.2128015357682901,-1.025474180274531,0,0,0,1
0.034961239337340896,-0.8051029242317098,-1.4449856802745311,0,0,0,1
-0.9797320246626591,-1.70258938423171,-1.3332015802745312,0,0,0,1
-0.9797320246626591,-1.70258938423171,-1.3332015802745312,0,0,0,1
-3.2646760746626593,-0.007153761231709872,0.9661761197254688,0,0,0,1
2.327481725337341,1.94810721576829,1.8795850197254689,0,0,0,1
3.6964937253373407,1.8675174157682901,1.0517669197254689,0,0,0,1
3.5989527253373406,1.04836481576829,-0.45270828027453125,0,0,0,1
3.5989527253373406,1.04836481576829,-0.45270828027453125,0,0,0,1
3.5989527253373406,1.04836481576829,-0.45270828027453125,0,0,0,1
2.256676225337341,-1.0652580842317099,-2.5655326802745315,0,0,0,1
-0.9736723746626591,-2.08450168423171,-1.7363241802745313,0,0,0,1
-5.357050874662659,-0.47458628423170984,-1.8919453802745312,0,0,0,1
-5.357050874662659,-0.47458628423170984,-1.8919453802745312,0,0,0,1
-1.392937174662659,2.0985863157682902,1.5095751197254688,0,0,0,1
1.973086825337341,1.81909251576829,0.23840829972546876,0,0,0,1
3.612939325337341,0.6142681157682901,0.14937206972546876,0,0,0,1
3.612939325337341,0.6142681157682901,0.14937206972546876,0,0,0,1
3.530252925337341,-3.0280143842317098,-1.1128021802745311,0,0,0,1
0.2907061753373409,-2.56446508423171,-0.4058108602745312,0,0,0,1
-3.903141474662659,-0.02558986423170987,0.31930377972546875,0,0,0,1
-5.219100974662659,2.3018665157682903,1.2376052197254688,0,0,0,1
-5.219100974662659,2.3018665157682903,1.2376052197254688,0,0,0,1
-2.6701263746626593,2.2482421157682904,1.0984376197254688,0,0,0,1
0.3016123953373409,1.55766211576829,0.8725830197254688,0,0,0,1
0.3016123953373409,1.55766211576829,0.8725830197254688,0,0,0,1
2.1244578253373407,0.2685728157682901,-0.7681606102745312,0,0,0,1
2.1244578253373407,0.2685728157682901,-0.7681606102745312,0,0,0,1
3.459473125337341,-0.42806713423170983,-1.3198925802745312,0,0,0,1
3.8869634253373406,-0.42736188423170984,-1.4292876802745311,0,0,0,1
3.8869634253373406,-0.42736188423170984,-1.4292876802745311,0,0,0,1
-1.458000674662659,0.13269280576829012,-0.7243249802745312,0,0,0,1
-3.2805327746626594,1.87008801576829,1.1105728197254687,0,0,0,1
1.560025725337341,-0.2020979642317099,0.8797042197254689,0,0,0,1
2.707112725337341,-1.02167008423171,-0.029963882274531225,0,0,0,1
2.5565286253373407,-1.72417088423171,-0.3654185802745312,0,0,0,1
-0.4801192146626591,-0.38141788423170986,-0.07248953027453123,0,0,0,1
-0.4801192146626591,-0.38141788423170986,-0.07248953027453123,0,0,0,1
-2.8387608746626594,1.31535071576829,-0.19803670027453124,0,0,0,1
-2.8387608746626594,1.31535071576829,-0.19803670027453124,0,0,0,1
0.0693879253373409,1.3562324157682901,0.42517991972546876,0,0,0,1
2.2469125253373408,-0.1279089542317099,-0.9357010402745312,0,0,0,1
2.4784121253373406,-0.8357047842317099,-1.4123348802745312,0,0,0,1
1.357965025337341,-0.6036691442317098,-1.3943839802745313,0,0,0,1
1.357965025337341,-0.6036691442317098,-1.3943839802745313,0,0,0,1
0.06156112533734089,-0.09076554423170986,0.010232536725468772,0,0,0,1
-3.058480274662659,2.01703391576829,0.6712274797254688,0,0,0,1
-3.058480274662659,2.01703391576829,0.6712274797254688,0,0,0,1
2.3922037253373407,-0.7605144842317099,-1.2734073802745312,0,0,0,1
2.3922037253373407,-0.7605144842317099,-1.2734073802745312,0,0,0,1
0.7296242853373409,-0.34291161423170985,-1.1007342802745312,0,0,0,1
0.7296242853373409,-0.34291161423170985,-1.1007342802745312,0,0,0,1
-0.9976382046626591,0.26466293576829014,-0.09806648027453123,0,0,0,1
-0.9976382046626591,0.26466293576829014,-0.09806648027453123,0,0,0,1
-2.465113174662659,1.16690151576829,-0.038572580274531226,0,0,0,1
-2.465113174662659,1.16690151576829,-0.038572580274531226,0,0,0,1
-2.550460274662659,0.9523526657682901,0.19957783972546878,0,0,0,1
0.8596492253373409,-0.1698960442317099,-0.5011411002745312,0,0,0,1
0.8596492253373409,-0.1698960442317099,-0.5011411002745312,0,0,0,1
0.8596492253373409,-0.1698960442317099,-0.5011411002745312,0,0,0,1
2.384391325337341,-0.7971137842317099,-0.2529268602745312,0,0,0,1
-1.707703074662659,1.1259574157682901,0.23070075972546877,0,0,0,1
-1.707703074662659,1.1259574157682901,0.23070075972546877,0,0,0,1
-2.673605474662659,1.33970071576829,-0.16165188027453123,0,0,0,1
-0.5869812746626591,0.2016360057682901,0.20372154972546877,0,0,0,1
0.2735333653373409,0.05740578776829013,-0.21603408027453122,0,0,0,1
0.2735333653373409,0.05740578776829013,-0.21603408027453122,0,0,0,1
-0.2668595146626591,0.9657130157682902,-0.9795425202745311,0,0,0,1
-0.2668595146626591,0.9657130157682902,-0.9795425202745311,0,0,0,1
0.7919278253373409,0.39385573576829014,-0.8814099102745312,0,0,0,1
0.4607968453373409,-0.5728461842317099,-0.24789181027453122,0,0,0,1
0.45997859533734087,-0.5818545842317099,-0.2526381302745312,0,0,0,1
-1.343827674662659,1.15854681576829,0.4324514597254688,0,0,0,1
-1.343827674662659,1.15854681576829,0.4324514597254688,0,0,0,1
0.4107327653373409,-0.029602047231709873,0.43916519972546875,0,0,0,1
