acc_x,acc_y,acc_z,gyro_x,gyro_y,gyro_z,label
1.804853925337341,-1.40376398423171,-0.6951263302745312,0,0,0,1
0.0725064453373409,-0.9507147442317099,-0.2772441202745312,0,0,0,1
-1.383025674662659,0.06023928876829013,0.3253945397254688,0,0,0,1
-1.383025674662659,0.06023928876829013,0.3253945397254688,0,0,0,1
-0.5177912746626591,0.04242013576829013,0.5545376197254688,0,0,0,1
-0.5769619746626591,-1.2905191842317099,-0.6435505502745311,0,0,0,1
0.4765734853373409,-1.64485358423171,-0.7233453102745312,0,0,0,1
0.4765734853373409,-1.64485358423171,-0.7233453102745312,0,0,0,1
0.6195960253373409,0.14997741576829013,-1.157996880274531,0,0,0,1
0.5805096753373409,2.4532714157682904,-0.5512684802745311,0,0,0,1
0.6064934853373409,2.0246043157682903,-0.2633558802745312,0,0,0,1
-0.0010409194626591054,-0.6376634842317098,-0.10465458027453123,0,0,0,1
-0.0010409194626591054,-0.6376634842317098,-0.10465458027453123,0,0,0,1
-0.21062801466265912,-1.79247998423171,0.04378935572546878,0,0,0,1
-0.21062801466265912,-1.79247998423171,0.04378935572546878,0,0,0,1
-0.8298401746626591,-2.1687370842317097,0.9788484897254688,0,0,0,1
-0.5712094146626591,0.7532043157682902,1.1879074197254689,0,0,0,1
0.6022715753373409,1.63336401576829,0.5339034197254688,0,0,0,1
0.6022715753373409,1.63336401576829,0.5339034197254688,0,0,0,1
2.0987773253373407,1.0474582157682901,-1.0348838802745313,0,0,0,1
2.0987773253373407,1.0474582157682901,-1.0348838802745313,0,0,0,1
1.386982425337341,0.04426516976829013,-2.394433680274531,0,0,0,1
0.5397391253373409,-1.58904188423171,-2.5734256802745312,0,0,0,1
-1.681535274662659,0.6424208157682901,0.12170096972546876,0,0,0,1
-1.681535274662659,0.6424208157682901,0.12170096972546876,0,0,0,1
-1.593373774662659,2.01222291576829,1.6590542197254687,0,0,0,1
-0.41866062466265913,1.75827461576829,2.8972713197254687,0,0,0,1
-0.41866062466265913,1.75827461576829,2.8972713197254687,0,0,0,1
-0.41866062466265913,1.75827461576829,2.8972713197254687,0,0,0,1
2.2052331253373407,-0.5419568242317099,0.8969119197254688,0,0,0,1
1.596251025337341,-0.8366951842317099,-2.5113334802745313,0,0,0,1
-1.922316974662659,-0.7274931442317099,-2.7637171802745315,0,0,0,1
-1.922316974662659,-0.7274931442317099,-2.7637171802745315,0,0,0,1
-3.864275474662659,-0.42953483423170985,-2.0704433802745315,0,0,0,1
-3.864275474662659,-0.42953483423170985,-2.0704433802745315,0,0,0,1
-3.068123274662659,0.5352369757682901,-0.4980647802745312,0,0,0,1
-0.3080382146626591,1.16063071576829,0.9490296497254688,0,0,0,1
-0.3080382146626591,1.17099981576829,0.7922444597254689,0,0,0,1
3.707939725337341,1.08007361576829,1.164266919725469,0,0,0,1
3.707939725337341,1.08007361576829,1.164266919725469,0,0,0,1
0.9903893653373409,-1.13049228423171,-1.1998236802745312,0,0,0,1
-3.6171125746626593,-1.11574698423171,-0.6644840802745312,0,0,0,1
-1.477822774662659,2.16467361576829,0.10561832972546877,0,0,0,1
2.282677225337341,0.8016480157682901,-0.6071167302745312,0,0,0,1
2.349732925337341,-0.6941522842317098,-0.7630331802745312,0,0,0,1
2.349732925337341,-0.6941522842317098,-0.7630331802745312,0,0,0,1
1.636524725337341,-1.69362388423171,-0.8881105502745311,0,0,0,1
0.8658414253373409,-1.13720538423171,-1.0728917802745312,0,0,0,1
0.8658414253373409,-1.13720538423171,-1.0728917802745312,0,0,0,1
-0.7533173446626591,-0.10251967423170986,0.16988536972546878,0,0,0,1
-0.7533173446626591,-0.10251967423170986,0.16988536972546878,0,0,0,1
-2.781884274662659,1.29859331576829,0.8428296197254688,0,0,0,1
2.0905299253373406,-0.03677527423170987,0.3933428797254688,0,0,0,1
2.0905299253373406,-0.03677527423170987,0.3933428797254688,0,0,0,1
1.599260825337341,0.5975298157682901,-1.436400780274531,0,0,0,1
1.599260825337341,0.5975298157682901,-1.436400780274531,0,0,0,1
1.599260825337341,0.5975298157682901,-1.436400780274531,0,0,0,1
-0.1913914546626591,-0.5560469842317098,-1.3940496802745312,0,0,0,1
-2.4967155746626593,-0.6890160842317099,-0.5188837402745312,0,0,0,1
-2.4967155746626593,-0.6890160842317099,-0.5188837402745312,0,0,0,1
1.478640125337341,1.56358221576829,1.193955419725469,0,0,0,1
-0.2153248646626591,-0.9926012842317099,0.29640801972546876,0,0,0,1
-0.2153248646626591,-0.9926012842317099,0.29640801972546876,0,0,0,1
-0.3354267946626591,1.30009081576829,-0.6948381802745311,0,0,0,1
-0.3354267946626591,1.30009081576829,-0.6948381802745311,0,0,0,1
0.5984444753373409,2.2959735157682903,-0.27021411027453124,0,0,0,1
0.7369351253373408,1.70450121576829,-0.29247084027453124,0,0,0,1
0.7369351253373408,1.70450121576829,-0.29247084027453124,0,0,0,1
0.07305099533734088,0.6089948557682902,-0.5668601102745312,0,0,0,1
1.158869325337341,-0.25862968423170984,-0.9207262102745312,0,0,0,1
0.3074803553373409,-0.8547905542317099,-0.33901861027453123,0,0,0,1
0.3074803553373409,-0.8547905542317099,-0.33901861027453123,0,0,0,1
0.3074803553373409,-0.8547905542317099,-0.33901861027453123,0,0,0,1
0.3074803553373409,-0.8547905542317099,-0.33901861027453123,0,0,0,1
0.3074803553373409,-0.8547905542317099,-0.33901861027453123,0,0,0,1
-1.224891174662659,-0.5879308842317098,1.1498415197254688,0,0,0,1
-1.224891174662659,-0.5879308842317098,1.1498415197254688,0,0,0,1
0.9767565853373409,1.29516191576829,0.6075700797254688,0,0,0,1
-1.681338774662659,0.04742364976829013,-1.500316980274531,0,0,0,1
-1.681338774662659,0.04742364976829013,-1.500316980274531,0,0,0,1
-2.2332792746626593,1.32659811576829,-0.6812889802745312,0,0,0,1
-2.2332792746626593,1.32659811576829,-0.6812889802745312,0,0,0,1
-0.6520371246626591,1.51360211576829,-0.6924399402745312,0,0,0,1
-0.6520371246626591,1.51360211576829,-0.6924399402745312,0,0,0,1
0.6041150253373408,0.9880880157682902,-0.5598978102745312,0,0,0,1
1.118415325337341,-0.6805232842317098,-0.4083564602745312,0,0,0,1
0.8288169253373409,-0.8787477842317098,-0.05838969527453122,0,0,0,1
0.8288169253373409,-0.8787477842317098,-0.05838969527453122,0,0,0,1
-1.108373174662659,-0.8130335842317099,-0.16030815027453124,0,0,0,1
-1.108373174662659,-0.8130335842317099,-0.16030815027453124,0,0,0,1
0.3019042253373409,-1.08923938423171,0.6375998497254688,0,0,0,1
0.3019042253373409,-1.08923938423171,0.6375998497254688,0,0,0,1
1.197217525337341,-0.5771315842317098,0.45540209972546875,0,0,0,1
1.197217525337341,-0.5771315842317098,0.45540209972546875,0,0,0,1
1.197217525337341,-0.5771315842317098,0.45540209972546875,0,0,0,1
-1.553876374662659,-0.6868305842317098,-1.2359504802745311,0,0,0,1
-2.8583692746626594,-1.43274248423171,-1.682668480274531,0,0,0,1
-0.20542858466265912,-1.60703398423171,-0.6167454802745311,0,0,0,1
3.1300111253373406,-0.1793793542317099,0.5817155497254688,0,0,0,1
2.444007425337341,1.58564091576829,0.4105353597254688,0,0,0,1
2.444007425337341,1.58564091576829,0.4105353597254688,0,0,0,1
2.444007425337341,1.58564091576829,0.4105353597254688,0,0,0,1
0.24949982533734089,0.29966558576829017,1.0400987197254687,0,0,0,1
-0.3290695946626591,-1.3933933842317099,1.1047084197254688,0,0,0,1
-2.993402474662659,-0.7448025842317099,0.5025262497254688,0,0,0,1
-2.6196852746626593,0.9306175157682901,0.13974329972546878,0,0,0,1
-2.6196852746626593,0.9306175157682901,0.13974329972546878,0,0,0,1
0.7989020253373409,0.40901621576829017,0.5422918197254688,0,0,0,1
0.7989020253373409,0.40901621576829017,0.5422918197254688,0,0,0,1
1.309665225337341,0.5874973157682901,-1.400983380274531,0,0,0,1
1.309665225337341,0.5874973157682901,-1.400983380274531,0,0,0,1
0.3921780753373409,-0.1660674342317099,-0.9602970202745311,0,0,0,1
0.3921780753373409,-0.1660674342317099,-0.9602970202745311,0,0,0,1
-2.0976362746626593,0.6051411157682901,0.4163776197254688,0,0,0,1
-2.0976362746626593,0.6051411157682901,0.4163776197254688,0,0,0,1
0.6350655753373409,-0.9931497842317099,1.345971519725469,0,0,0,1
0.36426592533734087,-1.26152978423171,0.4284088197254688,0,0,0,1
0.36426592533734087,-1.26152978423171,0.4284088197254688,0,0,0,1
1.738340825337341,-1.96634748423171,0.33085449972546876,0,0,0,1
1.538753025337341,-1.34341948423171,0.7631780797254688,0,0,0,1
1.538753025337341,-1.34341948423171,0.7631780797254688,0,0,0,1
-1.608000274662659,1.00227731576829,0.6031124897254688,0,0,0,1
-1.608000274662659,1.00227731576829,0.6031124897254688,0,0,0,1
-1.608000274662659,1.00227731576829,0.6031124897254688,0,0,0,1
1.232467225337341,1.78157591576829,-0.39066592027453123,0,0,0,1
1.232467225337341,1.78157591576829,-1.0307738802745312,0,0,0,1
2.6562343253373406,1.25049971576829,-1.0307738802745312,0,0,0,1
0.8243937653373409,0.9914818157682902,-1.889532580274531,0,0,0,1
-0.9099564346626591,-0.34215552423170986,-1.6261780802745311,0,0,0,1
-0.9099564346626591,-0.34215552423170986,-1.6261780802745311,0,0,0,1
-1.079641774662659,-0.1286887042317099,0.44656529972546877,0,0,0,1
-0.1683497246626591,1.06336861576829,0.6342944197254688,0,0,0,1
1.696720625337341,0.9903080657682901,1.2915729197254688,0,0,0,1
2.0382981253373407,-0.11535842423170987,1.4344043197254688,0,0,0,1
0.4387650653373409,-0.8359172142317098,0.5276180197254688,0,0,0,1
0.4387650653373409,-0.8359172142317098,0.5276180197254688,0,0,0,1
-0.7598252146626591,-1.32958748423171,0.03939494372546878,0,0,0,1
-0.3602681046626591,-1.10980278423171,-0.6970354802745312,0,0,0,1
-0.3602681046626591,-1.10980278423171,-0.6970354802745312,0,0,0,1
-0.10701702466265911,-0.9359806842317099,-0.40712670027453124,0,0,0,1
-0.10701702466265911,-0.9359806842317099,-0.40712670027453124,0,0,0,1
-0.7225622746626591,0.14477223576829013,-0.36326698027453125,0,0,0,1
-0.7225622746626591,0.14477223576829013,-0.36326698027453125,0,0,0,1
1.007690925337341,0.6854123157682901,0.09737190472546876,0,0,0,1
1.007690925337341,0.6854123157682901,0.09737190472546876,0,0,0,1
0.9242253253373409,0.11787517576829012,-0.22043386027453124,0,0,0,1
0.9242253253373409,0.11787517576829012,-0.22043386027453124,0,0,0,1
0.6086392553373409,0.13647789576829011,0.23039563972546878,0,0,0,1
-0.4426274146626591,0.2199069757682901,0.4295562797254688,0,0,0,1
-0.3934988746626591,0.44679148576829014,0.33651621972546875,0,0,0,1
-0.3934988746626591,0.44679148576829014,0.33651621972546875,0,0,0,1
-0.3939976546626591,-0.41371766423170986,-0.23466518027453123,0,0,0,1
-0.3939976546626591,-0.41371766423170986,-0.23466518027453123,0,0,0,1
-0.013114436662659105,-1.40811898423171,0.06317981972546877,0,0,0,1
-0.013114436662659105,-1.40811898423171,0.06317981972546877,0,0,0,1
0.2832522553373409,-0.9439129842317099,0.15038915972546876,0,0,0,1
0.2832522553373409,-0.9439129842317099,0.15038915972546876,0,0,0,1
0.23225070533734088,0.9804410157682901,-0.008117945534531225,0,0,0,1
0.23225070533734088,0.9804410157682901,-0.008117945534531225,0,0,0,1
1.615940625337341,0.1888969457682901,0.10347493972546877,0,0,0,1
1.099993225337341,-0.5785590242317099,0.041647759725468775,0,0,0,1
-0.5756792746626591,0.21208168576829012,-0.34469738027453123,0,0,0,1
-0.5796494346626591,-0.5618542242317098,0.019525973725468774,0,0,0,1
-1.431819374662659,-0.6697169342317099,0.5039630197254689,0,0,0,1
-1.204663774662659,0.11833052576829013,0.4268990397254688,0,0,0,1
3.2287784253373406,0.5984243157682901,0.8149298197254689,0,0,0,1
3.2287784253373406,0.5984243157682901,0.8149298197254689,0,0,0,1
3.2287784253373406,0.5984243157682901,0.8149298197254689,0,0,0,1
1.310306125337341,1.48726821576829,0.14002152972546877,0,0,0,1
-0.9300036246626591,0.8716559557682901,-0.8892635402745311,0,0,0,1
-1.488827174662659,-1.5233334842317099,-0.9263912802745312,0,0,0,1
-2.478826974662659,-2.5471832842317097,-0.7589777802745312,0,0,0,1
-2.478826974662659,-2.5471832842317097,-0.7589777802745312,0,0,0,1
-3.5095710746626594,-1.19446528423171,0.06250056472546878,0,0,0,1
3.0012078253373407,1.04844981576829,1.4866806197254687,0,0,0,1
4.417268325337341,0.6966351157682902,1.5165829197254688,0,0,0,1
2.0110030253373408,-1.25528388423171,-1.3587124802745312,0,0,0,1
0.3958182453373409,0.6684936457682902,1.228759719725469,0,0,0,1
0.3958182453373409,0.6684936457682902,1.228759719725469,0,0,0,1
2.390160125337341,-0.16598208423170988,0.5830874197254688,0,0,0,1
2.390160125337341,-0.16598208423170988,0.5830874197254688,0,0,0,1
3.825229225337341,-0.48003928423170983,0.4505254197254688,0,0,0,1
3.825229225337341,-0.48003928423170983,0.4505254197254688,0,0,0,1
4.414298725337341,-0.7705478442317099,-0.23712829027453122,0,0,0,1
2.3361717253373406,-0.5990894842317098,-1.387284980274531,0,0,0,1
-4.53234767466266,-1.03336168423171,-0.5582932802745312,0,0,0,1
-4.501166274662659,-0.27391580423170986,0.6655301697254689,0,0,0,1
-4.501166274662659,-0.27391580423170986,0.6655301697254689,0,0,0,1
0.8610024653373409,1.3848325157682901,1.3231570197254687,0,0,0,1
4.11470072533734,-0.7898091842317099,-0.6251358102745311,0,0,0,1
2.730123025337341,-2.0539884842317098,-1.201916980274531,0,0,0,1
2.730123025337341,-2.0539884842317098,-1.201916980274531,0,0,0,1
2.730123025337341,-2.0539884842317098,-1.201916980274531,0,0,0,1
2.730123025337341,-2.0539884842317098,-1.201916980274531,0,0,0,1
-2.733232474662659,-1.02383258423171,-0.5254689802745311,0,0,0,1
-2.733232474662659,-1.02383258423171,-0.5254689802745311,0,0,0,1
-2.0805120746626593,1.8962681157682901,0.7374315197254688,0,0,0,1
0.8493991253373409,0.28706971576829016,0.9276799797254688,0,0,0,1
0.8493991253373409,0.28706971576829016,0.9276799797254688,0,0,0,1
1.979589925337341,-1.15782788423171,0.3210894197254688,0,0,0,1
2.3682675253373406,-1.43392968423171,0.18796517972546878,0,0,0,1
2.3682675253373406,-1.43392968423171,0.18796517972546878,0,0,0,1
2.577150725337341,-0.5322131342317099,0.38956447972546876,0,0,0,1
2.577150725337341,-0.5322131342317099,0.38956447972546876,0,0,0,1
-1.188580974662659,0.5728751557682902,0.43614789972546875,0,0,0,1
-2.742168874662659,0.31821216576829014,0.2822211697254688,0,0,0,1
-2.0884837746626594,0.07710449576829013,0.11086382972546877,0,0,0,1
-2.0884837746626594,0.07710449576829013,0.11086382972546877,0,0,0,1
-0.3605675546626591,0.2310918157682901,0.25537695972546876,0,0,0,1
-0.3605675546626591,0.2310918157682901,0.25537695972546876,0,0,0,1
2.1245857253373406,-0.2809052242317099,-0.32625798027453123,0,0,0,1
2.1245857253373406,-0.2809052242317099,-0.32625798027453123,0,0,0,1
2.118514525337341,-1.11019218423171,-0.41296366027453124,0,0,0,1
-1.557118874662659,0.6920112557682901,0.9219581797254688,0,0,0,1
-0.047458154662659104,0.27193965576829016,0.5022952797254688,0,0,0,1
-0.047458154662659104,0.27193965576829016,0.5022952797254688,0,0,0,1
0.3504567253373409,-0.9627400442317099,0.2760275197254688,0,0,0,1
0.6004052253373409,-1.02070448423171,-0.19124046027453123,0,0,0,1
0.6004052253373409,-1.02070448423171,-0.19124046027453123,0,0,0,1
0.31509257533734086,1.11752131576829,-0.40681103027453125,0,0,0,1
0.31509257533734086,1.11752131576829,-0.40681103027453125,0,0,0,1
