acc_x,acc_y,acc_z,gyro_x,gyro_y,gyro_z,label
0.3571963453373409,0.31031241576829016,0.4210123697254688,0,0,0,1
-0.1427140046626591,0.21093169576829013,-0.08944300027453123,0,0,0,1
-0.1427140046626591,0.21093169576829013,-0.08944300027453123,0,0,0,1
0.4154734753373409,0.7450727157682902,0.05348774672546878,0,0,0,1
0.4154734753373409,0.7450727157682902,0.05348774672546878,0,0,0,1
0.4154734753373409,0.7450727157682902,0.05348774672546878,0,0,0,1
0.4154734753373409,0.7450727157682902,0.05348774672546878,0,0,0,1
0.4154734753373409,0.7450727157682902,0.05348774672546878,0,0,0,1
1.113499225337341,0.7919634757682902,0.37136931972546877,0,0,0,1
0.8949370253373409,0.7870698157682902,0.06072017372546878,0,0,0,1
0.8949370253373409,0.7870698157682902,0.06072017372546878,0,0,0,1
0.8949370253373409,0.7870698157682902,0.06072017372546878,0,0,0,1
-0.9048723746626591,-0.05407979023170987,0.3012649697254688,0,0,0,1
-0.9048723746626591,-0.05407979023170987,0.3012649697254688,0,0,0,1
-0.9727005746626591,0.8878592157682902,0.3471724697254688,0,0,0,1
-0.9727005746626591,0.8878592157682902,0.3471724697254688,0,0,0,1
0.3462681953373409,1.01687051576829,0.3287660797254688,0,0,0,1
1.761568525337341,-0.9734465342317099,0.04950830172546878,0,0,0,1
0.3923583253373409,-0.6977683842317098,-0.32989791027453125,0,0,0,1
0.3923583253373409,-0.6977683842317098,-0.32989791027453125,0,0,0,1
0.007012860337340895,-0.5095629542317098,-0.05607369727453122,0,0,0,1
0.007012860337340895,-0.5095629542317098,-0.05607369727453122,0,0,0,1
-0.5368561746626591,-0.05362116223170987,0.04874488572546878,0,0,0,1
-0.34810397466265913,0.5862443157682902,0.22871621972546877,0,0,0,1
-0.34810397466265913,0.5862443157682902,0.22871621972546877,0,0,0,1
0.35582592533734086,-0.29663060423170984,-0.6462352802745311,0,0,0,1
-1.631616574662659,0.9558908557682901,-0.38605884027453125,0,0,0,1
-1.631616574662659,0.9558908557682901,-0.38605884027453125,0,0,0,1
-1.184166374662659,0.8910222157682901,-0.10347751027453123,0,0,0,1
-0.2622332446626591,-0.5102492842317099,0.08480593372546877,0,0,0,1
-0.08523510466265911,-0.6445489842317098,0.13590296972546878,0,0,0,1
-0.08523510466265911,-0.6445489842317098,0.13590296972546878,0,0,0,1
-0.7472719746626592,-0.24828271423170986,-0.39058235027453125,0,0,0,1
-0.7472719746626592,-0.24828271423170986,-0.39058235027453125,0,0,0,1
0.8281674253373409,0.9326528457682901,-0.5096416802745312,0,0,0,1
-0.8805498746626591,-0.4468688142317099,-0.8133542802745312,0,0,0,1
-0.8805498746626591,-0.4468688142317099,-0.8133542802745312,0,0,0,1
-0.1325344846626591,-0.9410353842317098,-0.20377782027453123,0,0,0,1
-0.6666626746626592,-0.32914675423170986,-0.11418870027453124,0,0,0,1
0.5568261253373409,-1.44571438423171,0.17719944972546878,0,0,0,1
0.5568261253373409,-1.44571438423171,0.17719944972546878,0,0,0,1
-1.145879274662659,1.4610301157682901,0.11280628972546877,0,0,0,1
0.8676696253373409,1.43765371576829,-0.018882544274531225,0,0,0,1
1.803290825337341,0.6552136757682901,-0.6100995802745312,0,0,0,1
-0.020616038662659104,0.07917644576829012,-1.3221306802745312,0,0,0,1
-1.089606774662659,-0.9699641242317099,-0.9999423302745312,0,0,0,1
-0.8102936746626591,0.04294534376829013,0.7504874197254688,0,0,0,1
1.114630225337341,1.01478051576829,1.1752588197254688,0,0,0,1
1.114630225337341,1.01478051576829,1.1752588197254688,0,0,0,1
0.5283465253373408,-0.9879454842317098,0.05450364972546878,0,0,0,1
0.5283465253373408,-0.9879454842317098,0.05450364972546878,0,0,0,1
0.9021277553373409,-0.9725511842317098,-0.29665235027453124,0,0,0,1
-0.5142340746626591,0.18902939576829011,0.7736356197254688,0,0,0,1
-1.596351174662659,-0.10303614423170987,0.5000378797254689,0,0,0,1
0.06521560533734089,0.39798631576829013,0.05873843972546878,0,0,0,1
0.06521560533734089,0.39798631576829013,0.05873843972546878,0,0,0,1
0.40022422533734087,0.37018288576829017,-0.6115732802745312,0,0,0,1
0.5928960253373409,-0.8756397842317099,-0.4533827602745312,0,0,0,1
-1.121484274662659,-0.35391908423170987,-0.09811857527453123,0,0,0,1
0.038574711337340896,0.02370252076829013,0.8542090197254688,0,0,0,1
0.038574711337340896,0.02370252076829013,0.8542090197254688,0,0,0,1
0.038574711337340896,0.02370252076829013,0.8542090197254688,0,0,0,1
1.232420425337341,0.9346996757682902,-0.06447568727453122,0,0,0,1
1.232420425337341,0.9346996757682902,-0.06447568727453122,0,0,0,1
-0.7971825446626591,1.34462361576829,-0.22073725027453123,0,0,0,1
-1.065554174662659,0.6557554157682901,-0.17944840027453124,0,0,0,1
0.013042943337340896,-0.5149058842317099,-0.09736672027453123,0,0,0,1
0.3798737653373409,-0.8363765342317099,0.023596493725468775,0,0,0,1
0.2858176253373409,-0.07825441423170987,0.26019461972546876,0,0,0,1
1.313816525337341,0.3246257457682901,0.4333539897254688,0,0,0,1
-1.073952174662659,0.10429425576829013,0.04330357772546878,0,0,0,1
-1.073952174662659,0.10429425576829013,0.04330357772546878,0,0,0,1
-0.8065085246626591,-0.25897340423170984,0.22967847972546876,0,0,0,1
0.041119115337340896,0.6389244157682902,0.011177150725468772,0,0,0,1
0.041119115337340896,0.6389244157682902,0.011177150725468772,0,0,0,1
2.248317225337341,0.02420078576829013,-0.18279889027453122,0,0,0,1
0.5119996253373409,0.008229601768290129,-0.3068617802745312,0,0,0,1
-0.5283627346626592,-0.26718745423170986,-0.3975650402745312,0,0,0,1
-1.432917074662659,0.28753404576829017,-0.3278186602745312,0,0,0,1
-1.432917074662659,0.28753404576829017,-0.3278186602745312,0,0,0,1
1.609223825337341,-0.03146110123170987,-0.15902582027453124,0,0,0,1
1.609223825337341,-0.03146110123170987,-0.15902582027453124,0,0,0,1
0.3003974253373409,-1.29418328423171,-0.35610118027453125,0,0,0,1
-1.085010974662659,0.6464655157682901,-0.43871310027453125,0,0,0,1
-1.085010974662659,0.6464655157682901,-0.43871310027453125,0,0,0,1
-0.1425213646626591,1.23444181576829,-0.08919516027453123,0,0,0,1
0.6342053553373409,0.7617382157682902,-0.19010881027453122,0,0,0,1
0.17864562533734088,-1.12817688423171,-0.4567104802745312,0,0,0,1
0.5953335953373409,-1.30999888423171,-0.14394692027453124,0,0,0,1
0.1132655303373409,-0.33824928423170986,0.47813888972546875,0,0,0,1
-0.6124548746626591,0.8308896157682901,0.5777495797254688,0,0,0,1
0.0735888653373409,0.7544501157682901,0.41679736972546877,0,0,0,1
1.043665425337341,-0.18576938423170988,0.4624666897254688,0,0,0,1
-0.13001583466265912,-0.9051158842317099,-0.47919813027453123,0,0,0,1
-0.13001583466265912,-0.9051158842317099,-0.47919813027453123,0,0,0,1
-0.7471279746626591,0.8606623157682901,-0.5469809802745311,0,0,0,1
-0.6407751746626591,0.34775214576829017,-0.14968744027453124,0,0,0,1
0.6538586753373409,0.17425209576829012,0.29909154972546875,0,0,0,1
0.6538586753373409,0.17425209576829012,0.29909154972546875,0,0,0,1
0.1232476353373409,0.6663902157682902,0.21581538972546876,0,0,0,1
1.443887225337341,-0.6442912842317099,0.3175146197254688,0,0,0,1
-1.235942374662659,0.11986175576829013,-0.19188467027453124,0,0,0,1
-1.235942374662659,0.11986175576829013,-0.19188467027453124,0,0,0,1
-0.3358673746626591,0.5821394157682901,-0.008381517274531226,0,0,0,1
0.3746314253373409,0.6335630557682902,0.07376250472546877,0,0,0,1
0.3746314253373409,0.6335630557682902,0.07376250472546877,0,0,0,1
1.814136025337341,-1.02589228423171,0.4513882197254688,0,0,0,1
1.298253525337341,0.0040225867682901284,0.6964607197254689,0,0,0,1
1.298253525337341,0.0040225867682901284,0.6964607197254689,0,0,0,1
-0.011637194662659105,1.69661901576829,0.6310685597254688,0,0,0,1
-0.3695053746626591,1.85846831576829,0.8921364197254689,0,0,0,1
-0.2388062346626591,-2.3775680842317097,-0.8019945802745312,0,0,0,1
-0.2388062346626591,-2.3775680842317097,-0.8019945802745312,0,0,0,1
-0.2388062346626591,-2.3775680842317097,-0.8019945802745312,0,0,0,1
1.022286925337341,-0.5287704842317098,0.2607171197254688,0,0,0,1
1.022286925337341,-0.5287704842317098,0.2607171197254688,0,0,0,1
-0.10948990466265911,0.9734953857682901,1.1054220197254687,0,0,0,1
-0.10948990466265911,0.9734953857682901,1.1054220197254687,0,0,0,1
-0.10948990466265911,0.9734953857682901,1.1054220197254687,0,0,0,1
-0.10948990466265911,0.9734953857682901,1.1054220197254687,0,0,0,1
-0.9718308246626591,0.2348584757682901,0.7371048597254688,0,0,0,1
1.303668525337341,0.39733685576829014,-0.46990183027453125,0,0,0,1
1.303668525337341,0.39733685576829014,-0.46990183027453125,0,0,0,1
0.4668030853373409,0.03204574076829013,-0.5777462802745311,0,0,0,1
-1.003111374662659,0.6906221657682902,0.21203633972546876,0,0,0,1
-0.1607947146626591,-0.7108921842317099,0.5939589197254689,0,0,0,1
1.476366525337341,-0.09108841423170987,0.7720709697254688,0,0,0,1
1.774845625337341,0.8493380157682902,0.7263326197254688,0,0,0,1
1.774845625337341,0.8493380157682902,0.7263326197254688,0,0,0,1
-0.9918751746626591,-0.6565077842317099,-0.7708435402745312,0,0,0,1
0.18089057533734088,-2.12747548423171,-0.3361357802745312,0,0,0,1
0.18089057533734088,-2.12747548423171,-0.3361357802745312,0,0,0,1
0.7181630253373409,-0.9943481542317099,0.8362029197254688,0,0,0,1
1.280087025337341,1.37414931576829,1.6065723197254689,0,0,0,1
-0.9656624746626591,0.9225275657682901,-0.12357214027453123,0,0,0,1
1.809158825337341,0.011069584768290128,-0.46968678027453126,0,0,0,1
1.966827925337341,-0.07098005423170987,-0.23433498027453123,0,0,0,1
-2.8427676746626593,-0.1885332442317099,0.7941624197254689,0,0,0,1
-2.8427676746626593,-0.1885332442317099,0.7941624197254689,0,0,0,1
-2.2796134746626593,-0.5744483242317099,0.8712783697254688,0,0,0,1
-2.2796134746626593,-0.5744483242317099,0.8712783697254688,0,0,0,1
-0.8249459146626591,-0.27790798423170987,0.9009164897254688,0,0,0,1
1.944759825337341,-0.39819086423170985,0.26680728972546874,0,0,0,1
0.8804364253373409,-0.6594167842317099,-0.3841771202745312,0,0,0,1
-0.2969498446626591,-0.6771834842317098,-0.05805591027453122,0,0,0,1
-2.3691696746626594,0.8548606857682901,0.6801905197254688,0,0,0,1
-2.3691696746626594,0.8548606857682901,0.6801905197254688,0,0,0,1
-1.174599174662659,1.07041051576829,0.8543371197254688,0,0,0,1
1.457869025337341,0.49684144576829015,0.6947585597254688,0,0,0,1
2.8530755253373408,-0.04031587823170987,-0.05280521627453122,0,0,0,1
1.220715025337341,-0.29953072423170984,-0.5196593102745312,0,0,0,1
1.220715025337341,-0.29953072423170984,-0.5196593102745312,0,0,0,1
-2.509502374662659,-0.9888912842317099,-0.09330156627453123,0,0,0,1
-0.9058193746626592,-0.19808460423170987,1.1204291197254688,0,0,0,1
1.123476525337341,0.5700583657682902,1.3134937197254688,0,0,0,1
2.1843591253373407,1.1857067157682901,1.0161608197254688,0,0,0,1
2.446054025337341,-0.1802854842317099,-0.23582366027453122,0,0,0,1
2.446054025337341,-0.1802854842317099,-0.23582366027453122,0,0,0,1
0.5778613253373409,-0.7710991842317099,-0.36742464027453126,0,0,0,1
-2.639602674662659,-0.5379431842317098,-1.0421184802745311,0,0,0,1
