acc_x,acc_y,acc_z,gyro_x,gyro_y,gyro_z,label
1.606140625337341,0.9778366157682902,-1.6608916802745313,0,0,0,1
-0.5872549746626591,-1.10800698423171,1.4619803197254688,0,0,0,1
-0.5872549746626591,-1.10800698423171,1.4619803197254688,0,0,0,1
-0.5872549746626591,-1.10800698423171,1.4619803197254688,0,0,0,1
-2.093568274662659,-1.13692388423171,1.0186696197254688,0,0,0,1
0.8489508753373409,-0.03338446823170987,2.0090425197254684,0,0,0,1
1.810669425337341,0.8653256157682901,-3.368997380274531,0,0,0,1
1.865706025337341,0.9058004757682901,-2.7332851802745313,0,0,0,1
1.865706025337341,0.9058004757682901,-2.7332851802745313,0,0,0,1
1.215678725337341,0.07284243576829014,-0.4302169402745312,0,0,0,1
-2.561439974662659,-0.7845836842317099,1.2511491197254687,0,0,0,1
-2.081367474662659,-0.01868579923170987,2.9043161197254688,0,0,0,1
-0.7428602746626591,0.34022526576829015,1.277075619725469,0,0,0,1
1.055470925337341,0.1939010157682901,-1.6305040802745312,0,0,0,1
1.055470925337341,0.1939010157682901,-1.6305040802745312,0,0,0,1
2.4970374253373406,0.1485403657682901,-2.5998196802745315,0,0,0,1
0.5564370253373409,-0.9409441142317099,0.19764080972546877,0,0,0,1
0.5564370253373409,-0.9409441142317099,0.19764080972546877,0,0,0,1
-1.327916574662659,-1.20859788423171,0.9786836197254688,0,0,0,1
-2.4351768746626594,-0.7217939842317098,1.2021703197254687,0,0,0,1
-0.4295458746626591,0.45230295576829016,0.33219187972546876,0,0,0,1
0.9473700653373409,0.39861461576829016,-1.9039784802745312,0,0,0,1
0.9473700653373409,0.39861461576829016,-1.9039784802745312,0,0,0,1
0.7966466253373409,-0.07905463423170987,0.12606432972546877,0,0,0,1
-0.7358584246626592,0.27600123576829017,-0.44759014027453126,0,0,0,1
-1.018528474662659,1.0937289157682901,0.47783544972546876,0,0,0,1
-0.4404625746626591,0.29102341576829016,-1.0283453802745313,0,0,0,1
0.9758687253373409,-0.2537147242317099,-0.3064660802745312,0,0,0,1
0.3642296953373409,0.018946904768290126,-0.24953832027453124,0,0,0,1
-0.033534510662659105,0.6544239157682902,0.021702626725468774,0,0,0,1
-0.43108987466265913,-0.024683576231709872,1.374540019725469,0,0,0,1
1.219748025337341,-0.1327929442317099,-0.8255700802745312,0,0,0,1
1.219748025337341,-0.1327929442317099,-0.8255700802745312,0,0,0,1
2.4411120253373406,0.10859296076829013,-0.12771578027453123,0,0,0,1
0.7079615753373409,-0.47984520423170984,-0.8646546802745312,0,0,0,1
-0.8614296746626591,-1.07824308423171,-0.2592460802745312,0,0,0,1
0.011965291337340894,-0.20025466423170987,2.1641881197254684,0,0,0,1
0.011965291337340894,-0.20025466423170987,2.1641881197254684,0,0,0,1
0.011965291337340894,-0.20025466423170987,2.1641881197254684,0,0,0,1
1.565008625337341,1.03652911576829,-3.0066940802745314,0,0,0,1
2.466429225337341,1.05393671576829,-0.6817302802745312,0,0,0,1
-0.9405922746626592,-1.70530938423171,-0.39972538027453125,0,0,0,1
-0.9405922746626592,-1.70530938423171,-0.39972538027453125,0,0,0,1
-2.5734967746626594,-1.39610458423171,2.4710638197254684,0,0,0,1
-2.0876388746626593,-0.10301331823170987,1.1755354197254688,0,0,0,1
-2.0876388746626593,-0.10301331823170987,1.1755354197254688,0,0,0,1
3.4082303253373407,1.24956301576829,-1.4874796802745311,0,0,0,1
3.4082303253373407,1.24956301576829,-1.4874796802745311,0,0,0,1
2.949735225337341,0.41282873576829016,-1.1446372802745313,0,0,0,1
1.964722125337341,-1.0194547842317099,-1.1235107802745312,0,0,0,1
-2.5615968746626594,-0.9672628442317098,0.7907487197254688,0,0,0,1
-4.468852974662659,0.1693133857682901,1.1276934197254689,0,0,0,1
-4.468852974662659,0.1693133857682901,1.1276934197254689,0,0,0,1
-3.4342765746626593,0.7090673657682901,1.3168961197254687,0,0,0,1
-0.9951901246626591,0.26857371576829014,0.7503641197254688,0,0,0,1
2.699674125337341,-1.69395898423171,-1.3009202802745312,0,0,0,1
1.818651725337341,-1.74986108423171,-0.23084238027453122,0,0,0,1
-0.2715687546626591,-0.43341926423170984,0.14692007972546878,0,0,0,1
-2.0556697746626593,0.9224093757682902,0.6076063797254688,0,0,0,1
-1.889865874662659,1.23874961576829,-0.7522675102745312,0,0,0,1
-1.889865874662659,1.23874961576829,-0.7522675102745312,0,0,0,1
-1.889865874662659,1.23874961576829,-0.7522675102745312,0,0,0,1
1.797304625337341,-0.9753014842317098,-0.8551660802745312,0,0,0,1
1.513618925337341,-0.33235545423170987,-1.0002438802745313,0,0,0,1
1.513618925337341,-0.33235545423170987,-1.0002438802745313,0,0,0,1
-0.6570124746626591,0.35427191576829015,-0.7070020802745312,0,0,0,1
-0.6570124746626591,0.35427191576829015,-0.7070020802745312,0,0,0,1
-2.109289674662659,0.014516222768290128,-0.6937089302745312,0,0,0,1
-1.821893674662659,-0.5738103242317099,1.2039157197254688,0,0,0,1
-0.06991718466265912,-1.32604038423171,0.9188636797254688,0,0,0,1
1.274774125337341,-0.5681743442317099,0.032079061725468774,0,0,0,1
1.792051825337341,1.17445761576829,-1.6963001802745312,0,0,0,1
1.463748425337341,1.44091421576829,-1.172234180274531,0,0,0,1
1.463748425337341,1.44091421576829,-1.172234180274531,0,0,0,1
0.4314046053373409,0.7751531157682902,-0.9836411202745312,0,0,0,1
-0.5493511746626591,0.03073843176829013,0.22594333972546876,0,0,0,1
-0.6258177746626591,-0.5990345342317098,0.46842875972546877,0,0,0,1
0.3454175253373409,-0.5637249842317098,-0.9900573802745312,0,0,0,1
0.3454175253373409,-0.5637249842317098,-0.9900573802745312,0,0,0,1
1.599113025337341,-0.11103848423170987,-0.3186849402745312,0,0,0,1
0.7777018753373409,0.38749204576829016,-0.6517968802745312,0,0,0,1
0.38982249533734087,0.06900213976829013,-0.7319640802745312,0,0,0,1
-1.008054274662659,-1.01181628423171,-0.4682231602745312,0,0,0,1
-0.2534994946626591,-0.5632035842317099,0.6596165197254689,0,0,0,1
-0.2534994946626591,-0.5632035842317099,0.6596165197254689,0,0,0,1
0.10115958533734089,0.31137241576829017,1.2084686197254688,0,0,0,1
1.372520025337341,0.9862368157682901,-1.0041257502745313,0,0,0,1
1.980737225337341,0.7902767157682902,-0.6745722802745312,0,0,0,1
1.251680825337341,0.24394631576829012,-1.0949674802745313,0,0,0,1
-0.7187456746626592,-0.8035492842317099,0.04691773472546878,0,0,0,1
-0.7187456746626592,-0.8035492842317099,0.04691773472546878,0,0,0,1
-0.7187456746626592,-0.8035492842317099,0.04691773472546878,0,0,0,1
-1.626131474662659,-0.5317755842317099,0.8868143197254689,0,0,0,1
-0.4343247246626591,0.18126981576829013,0.2639670697254688,0,0,0,1
1.209883225337341,0.25657259576829017,0.5301232597254688,0,0,0,1
1.432050225337341,-0.4797157442317099,-1.3559470802745313,0,0,0,1
1.432050225337341,-0.4797157442317099,-1.3559470802745313,0,0,0,1
-0.7496905146626591,-1.0865841842317099,-0.12028242027453123,0,0,0,1
-2.217974274662659,-1.07093098423171,0.23260455972546876,0,0,0,1
-2.2791914746626594,-0.7729309842317098,1.741440419725469,0,0,0,1
-1.517611974662659,-0.41743610423170985,1.4138380197254687,0,0,0,1
0.27977612533734086,-0.41896281423170983,0.013288436725468773,0,0,0,1
2.744920225337341,-0.15285698423170987,-0.5934365102745311,0,0,0,1
3.4219298253373407,0.009972769468290128,-1.1867221802745311,0,0,0,1
2.452430225337341,0.08182944576829013,-2.235729280274531,0,0,0,1
2.0190473253373407,0.33365525576829014,-0.4171745502745312,0,0,0,1
0.24430133533734089,0.31308444576829014,1.1498591197254688,0,0,0,1
-2.851192474662659,0.5500110557682901,0.16152434972546878,0,0,0,1
-3.3627514746626592,1.13385841576829,1.3758763197254689,0,0,0,1
2.544591425337341,-0.26073221423170984,-1.4819004802745313,0,0,0,1
2.9347463253373407,-0.5451255242317099,-1.5470927802745311,0,0,0,1
2.9347463253373407,-0.5451255242317099,-1.5470927802745311,0,0,0,1
0.4057746053373409,-1.21099308423171,-0.44644386027453126,0,0,0,1
0.4057746053373409,-1.21099308423171,-0.44644386027453126,0,0,0,1
-3.2714752746626594,-0.36994808423170983,0.8719084497254688,0,0,0,1
0.018772618337340896,-0.10390470423170987,0.7302770197254689,0,0,0,1
0.018772618337340896,-0.10390470423170987,0.7302770197254689,0,0,0,1
3.268403525337341,0.08563293576829013,-0.9443273802745312,0,0,0,1
2.9942403253373406,0.7176405157682901,-0.4937644302745312,0,0,0,1
1.305789525337341,0.7057735457682901,-2.3167753802745312,0,0,0,1
-2.151699574662659,0.07663776576829014,0.7980395197254688,0,0,0,1
-3.9577469746626592,0.023841637768290132,1.732519319725469,0,0,0,1
-3.387790274662659,-0.32520088423170984,1.5663280197254688,0,0,0,1
-0.500555494662659,-0.28982184423170987,1.3660421197254689,0,0,0,1
3.432401225337341,-0.05522189723170987,-2.1974213802745313,0,0,0,1
-0.5691799746626591,0.01596375176829013,1.120445319725469,0,0,0,1
-0.5691799746626591,0.01596375176829013,1.120445319725469,0,0,0,1
-0.5691799746626591,0.01596375176829013,1.120445319725469,0,0,0,1
-3.0090140746626592,1.19954991576829,1.2707114197254687,0,0,0,1
-1.075245374662659,1.27136021576829,0.8492313197254688,0,0,0,1
2.6096597253373406,0.38311131576829016,-1.8458564802745312,0,0,0,1
2.6096597253373406,0.38311131576829016,-1.8458564802745312,0,0,0,1
1.168881925337341,0.36100501576829014,-0.5288550802745312,0,0,0,1
-0.2323736946626591,-0.00035605983170987126,1.0692694197254689,0,0,0,1
-0.2323736946626591,-0.00035605983170987126,1.0692694197254689,0,0,0,1
-0.5849747746626591,-0.7474714842317098,-0.5387159302745311,0,0,0,1
-0.5849747746626591,-0.7474714842317098,-0.5387159302745311,0,0,0,1
1.315256625337341,-0.12131587823170988,-0.6437241102745311,0,0,0,1
1.315256625337341,-0.12131587823170988,-0.6437241102745311,0,0,0,1
1.340877025337341,0.6116129157682901,-0.7294565202745312,0,0,0,1
-1.246185774662659,-0.19273392423170987,-0.07103236027453123,0,0,0,1
-1.246185774662659,-0.19273392423170987,-0.07103236027453123,0,0,0,1
-0.6155628746626591,-0.12761322423170987,0.8510550197254688,0,0,0,1
-0.6155628746626591,-0.12761322423170987,0.8510550197254688,0,0,0,1
0.12048961533734089,0.5211064157682902,-0.041777040274531226,0,0,0,1
1.852620625337341,1.34463381576829,-0.5035230202745312,0,0,0,1
1.852620625337341,1.34463381576829,-0.5035230202745312,0,0,0,1
0.7976165253373408,-0.45040575423170987,-1.2282868802745313,0,0,0,1
0.8343043253373409,-0.33710848423170986,1.2158645197254687,0,0,0,1
-0.4879717746626591,-0.09157101423170987,1.0281242197254687,0,0,0,1
-1.342260774662659,0.8155868157682902,0.6960888797254688,0,0,0,1
-1.245304574662659,1.94670511576829,-0.5093360802745311,0,0,0,1
-0.2819466446626591,2.3554797157682903,-1.4748755802745313,0,0,0,1
1.009450425337341,1.62644931576829,-0.8435294302745312,0,0,0,1
1.340205725337341,0.12670028576829012,-0.3308382802745312,0,0,0,1
0.8431344253373408,-1.2034240842317099,-0.36067818027453125,0,0,0,1
-0.2452559346626591,-1.98098948423171,1.2812795197254687,0,0,0,1
-0.9730791746626591,-1.16506768423171,1.7070505197254688,0,0,0,1
-0.8125147746626591,-0.04357151423170987,1.3687702197254688,0,0,0,1
0.4039616753373409,0.8311599657682901,0.3841342597254688,0,0,0,1
1.937717925337341,1.52136161576829,-2.5218046802745313,0,0,0,1
1.654709325337341,1.69222091576829,-2.1377086802745313,0,0,0,1
0.10853053533734089,0.9543733757682902,-1.602540480274531,0,0,0,1
-1.260642474662659,0.30643753576829014,1.012770619725469,0,0,0,1
-1.260642474662659,0.30643753576829014,1.012770619725469,0,0,0,1
3.049325525337341,-1.49133708423171,-1.5706794802745312,0,0,0,1
3.049325525337341,-1.49133708423171,-1.5706794802745312,0,0,0,1
3.049325525337341,-1.49133708423171,-1.5706794802745312,0,0,0,1
1.612769625337341,-0.6192668542317099,-0.24669403027453124,0,0,0,1
-3.579569274662659,1.80818591576829,0.5519960797254688,0,0,0,1
-3.579569274662659,1.80818591576829,0.5519960797254688,0,0,0,1
-3.579569274662659,1.80818591576829,0.5519960797254688,0,0,0,1
-0.6436066746626591,1.32158461576829,1.0117828197254688,0,0,0,1
1.538408725337341,0.5688405157682901,-0.6720956302745311,0,0,0,1
3.635386925337341,1.28760841576829,-0.10241650027453122,0,0,0,1
3.635386925337341,1.28760841576829,-0.10241650027453122,0,0,0,1
2.158818725337341,1.26916491576829,-1.1851421802745312,0,0,0,1
-0.0914110946626591,0.32182218576829014,-1.4370348802745312,0,0,0,1
-1.962113374662659,-0.09878866023170987,0.6340290597254689,0,0,0,1
-3.565542274662659,-0.5023781842317099,0.8739390697254689,0,0,0,1
