acc_x,acc_y,acc_z,gyro_x,gyro_y,gyro_z,label
-3.412246674662659,0.8729079557682902,-1.3930227802745312,0,0,0,1
-3.412246674662659,0.8729079557682902,-1.3930227802745312,0,0,0,1
0.4603305053373409,-0.028492030231709868,2.0323843197254687,0,0,0,1
0.4603305053373409,-0.028492030231709868,2.0323843197254687,0,0,0,1
2.6010833253373407,-1.30952058423171,0.8172182197254688,0,0,0,1
2.695508525337341,0.4277930757682901,-1.048998780274531,0,0,0,1
1.445722125337341,1.62709621576829,-0.7798983202745312,0,0,0,1
-0.9448933446626591,0.7522030157682902,-1.5612462802745313,0,0,0,1
-2.300897074662659,-1.08425308423171,0.4432849597254688,0,0,0,1
-1.929798074662659,-1.72066778423171,2.421098419725469,0,0,0,1
0.07336284533734089,-1.11109128423171,0.2731504197254688,0,0,0,1
1.617036325337341,0.014695081768290128,-2.7716939802745313,0,0,0,1
1.617036325337341,0.014695081768290128,-2.7716939802745313,0,0,0,1
2.536071325337341,2.2391293157682903,-0.9966321302745311,0,0,0,1
0.28536272533734086,-0.1829221342317099,-0.6549545802745311,0,0,0,1
0.28536272533734086,-0.1829221342317099,-0.6549545802745311,0,0,0,1
-1.173986874662659,-0.17537593423170988,2.0649964197254684,0,0,0,1
-1.922560674662659,-0.11488231423170987,2.4655659197254685,0,0,0,1
-1.922560674662659,-0.11488231423170987,2.4655659197254685,0,0,0,1
0.1572222853373409,-0.39771848423170986,-0.35885444027453123,0,0,0,1
0.1572222853373409,-0.39771848423170986,-0.35885444027453123,0,0,0,1
1.458730225337341,-0.46792976423170984,-4.530578680274531,0,0,0,1
2.7981105253373406,0.07804996076829013,1.3205647197254688,0,0,0,1
-0.44225262466265913,-0.34139625423170983,0.12515362972546876,0,0,0,1
-0.44225262466265913,-0.34139625423170983,0.12515362972546876,0,0,0,1
-1.810469174662659,1.14978491576829,-1.1617798802745312,0,0,0,1
-1.810469174662659,1.14978491576829,-1.1617798802745312,0,0,0,1
1.515019925337341,0.27929411576829016,-0.4191906802745312,0,0,0,1
0.6461634753373409,-1.13992448423171,2.1547943197254686,0,0,0,1
-0.5642628746626591,-1.36700188423171,1.741176119725469,0,0,0,1
-2.317367574662659,-0.5422946842317099,-1.2967497802745311,0,0,0,1
-2.317367574662659,-0.5422946842317099,-1.2967497802745311,0,0,0,1
0.5872483253373408,1.30743481576829,1.9787660197254688,0,0,0,1
1.683033525337341,-1.13044258423171,-0.3402005802745312,0,0,0,1
2.684215125337341,-1.14056068423171,0.9945615197254689,0,0,0,1
1.593609325337341,-0.16071028423170988,-0.13493469027453123,0,0,0,1
1.593609325337341,-0.16071028423170988,-0.13493469027453123,0,0,0,1
-1.699643574662659,0.7305280757682902,2.4905478197254687,0,0,0,1
-0.0067000228626591055,0.2432402257682901,2.2652597197254685,0,0,0,1
2.051779325337341,-0.8870839842317099,-3.7704908802745316,0,0,0,1
1.571632925337341,-0.42983298423170985,-3.4138791802745314,0,0,0,1
1.571632925337341,-0.42983298423170985,-3.4138791802745314,0,0,0,1
-0.037407381662659105,0.5788639157682901,0.32421835972546875,0,0,0,1
-2.5582570746626594,0.8802752657682902,4.669192319725469,0,0,0,1
-2.5582570746626594,0.8802752657682902,4.669192319725469,0,0,0,1
1.586348025337341,-0.2233944042317099,-1.7769460802745312,0,0,0,1
3.828234225337341,0.3733267357682901,-3.473410180274531,0,0,0,1
3.8359207253373406,1.5462230157682901,-0.6647541802745311,0,0,0,1
-0.7036404746626591,0.5056552157682901,-2.385612280274531,0,0,0,1
-0.7036404746626591,0.5056552157682901,-2.385612280274531,0,0,0,1
-1.760562874662659,-1.06102008423171,3.1701002197254686,0,0,0,1
0.4546952453373409,-0.5017230342317098,0.5031605197254688,0,0,0,1
0.4546952453373409,-0.5017230342317098,0.5031605197254688,0,0,0,1
3.024653925337341,0.6371799157682901,-0.38658181027453126,0,0,0,1
3.024653925337341,0.6371799157682901,-0.38658181027453126,0,0,0,1
0.3058562453373409,-0.5809324242317099,0.2825805797254688,0,0,0,1
-0.7140097746626591,-1.01907808423171,2.1761913197254685,0,0,0,1
-0.7140097746626591,-1.01907808423171,2.1761913197254685,0,0,0,1
-0.7140097746626591,-1.01907808423171,2.1761913197254685,0,0,0,1
-2.661704074662659,-0.7881755842317099,0.43243684972546875,0,0,0,1
-1.016644974662659,-0.9300772842317099,1.0506927197254687,0,0,0,1
-0.3463759246626591,-1.25606868423171,-0.23504213027453122,0,0,0,1
-0.3463759246626591,-1.25606868423171,-0.23504213027453122,0,0,0,1
1.361436425337341,-0.9070360442317098,-0.6749912802745311,0,0,0,1
3.510967725337341,-0.05080176423170987,1.3030886197254687,0,0,0,1
1.948942725337341,1.75313281576829,-1.374643480274531,0,0,0,1
1.948942725337341,1.75313281576829,-1.374643480274531,0,0,0,1
1.948942725337341,1.75313281576829,-1.374643480274531,0,0,0,1
-1.214974874662659,0.7696270557682902,0.06617244972546878,0,0,0,1
-1.214974874662659,0.7696270557682902,0.06617244972546878,0,0,0,1
-3.311304574662659,-0.3037994842317099,2.4008488197254687,0,0,0,1
-3.311304574662659,-0.3037994842317099,2.4008488197254687,0,0,0,1
4.0331273253373405,-0.36978498423170986,-0.07997325027453123,0,0,0,1
4.0331273253373405,-0.36978498423170986,-0.07997325027453123,0,0,0,1
1.939376325337341,0.12035443976829013,-1.7186844802745311,0,0,0,1
1.939376325337341,0.12035443976829013,-1.7186844802745311,0,0,0,1
-2.2202500746626592,0.2376960257682901,2.4551713197254688,0,0,0,1
-2.2202500746626592,0.2376960257682901,2.4551713197254688,0,0,0,1
-1.866969074662659,0.7650481657682902,1.8383681197254689,0,0,0,1
0.5436196253373409,1.19445441576829,1.6537964197254689,0,0,0,1
1.477138025337341,-0.5336197442317099,-3.8965582802745313,0,0,0,1
1.477138025337341,-0.5336197442317099,-3.8965582802745313,0,0,0,1
2.158681425337341,-0.5778321442317098,0.07289382972546878,0,0,0,1
-2.5371326746626592,-0.2268232242317099,1.0208369197254687,0,0,0,1
-2.453975274662659,0.7992962157682901,2.4439859197254687,0,0,0,1
-1.854919374662659,0.34965534576829016,0.6890250197254688,0,0,0,1
-0.13112209466265912,-0.9281664842317099,-2.2945244802745313,0,0,0,1
3.868772025337341,-1.38509848423171,2.2276210197254684,0,0,0,1
3.576633025337341,-1.78864378423171,1.520833019725469,0,0,0,1
0.8691334853373409,-1.60136348423171,-2.2401077802745313,0,0,0,1
0.8691334853373409,-1.60136348423171,-2.2401077802745313,0,0,0,1
0.7592721253373409,-0.1261966042317099,0.7696054197254688,0,0,0,1
-2.363963074662659,2.19654291576829,-0.37908533027453123,0,0,0,1
-0.9906267746626591,1.6321540157682901,-3.6361808802745315,0,0,0,1
-0.9906267746626591,1.6321540157682901,-3.6361808802745315,0,0,0,1
-0.9906267746626591,1.6321540157682901,-3.6361808802745315,0,0,0,1
3.539629525337341,-0.1266651142317099,3.9156677197254686,0,0,0,1
0.6549039253373409,-0.38828046423170987,3.4778296197254686,0,0,0,1
-2.453383474662659,0.03171898776829013,-5.0346986802745315,0,0,0,1
-2.453383474662659,0.03171898776829013,-5.0346986802745315,0,0,0,1
-2.453383474662659,0.03171898776829013,-5.0346986802745315,0,0,0,1
1.176508425337341,1.70671301576829,1.7887281197254687,0,0,0,1
0.2093653853373409,-1.30196948423171,2.9289873197254686,0,0,0,1
-0.6105179746626591,-0.18358497423170989,1.5562567197254689,0,0,0,1
-1.036239174662659,0.42425205576829017,-2.984723380274531,0,0,0,1
1.287456025337341,1.52852141576829,0.6357400197254688,0,0,0,1
1.287456025337341,1.52852141576829,0.6357400197254688,0,0,0,1
-2.285932074662659,0.07788160576829013,-2.272835080274531,0,0,0,1
-1.970652574662659,-1.45644688423171,-0.09771636027453123,0,0,0,1
-0.2987866246626591,-0.9810630842317098,2.2511978197254687,0,0,0,1
-0.2987866246626591,-0.9810630842317098,2.2511978197254687,0,0,0,1
0.5362343953373409,0.11654685576829013,0.09532376972546877,0,0,0,1
1.9991412253373408,0.9915045157682901,-0.5484417802745312,0,0,0,1
1.200341725337341,1.01321581576829,-1.9633237802745311,0,0,0,1
-0.29339073466265914,-0.1439628742317099,-1.7159323802745312,0,0,0,1
-1.265148574662659,0.09507181576829013,2.6291163197254686,0,0,0,1
-1.218739974662659,0.38852079576829013,0.6464963797254688,0,0,0,1
1.293356425337341,0.7713946157682902,0.13734092972546877,0,0,0,1
1.424157625337341,-0.5978428842317098,-1.5365906802745313,0,0,0,1
-1.784806674662659,0.7298436157682902,-0.3932681402745312,0,0,0,1
-2.152414274662659,1.20200991576829,0.5915303197254689,0,0,0,1
0.28368902533734086,-0.9037846842317099,0.5646083197254689,0,0,0,1
2.6808457253373406,-1.33882838423171,1.0561941197254687,0,0,0,1
2.227485225337341,-0.40451703423170987,-0.9973013802745312,0,0,0,1
-0.9049448746626592,0.41994501576829013,1.0350063197254689,0,0,0,1
-0.9049448746626592,0.41994501576829013,1.0350063197254689,0,0,0,1
-0.9049448746626592,0.41994501576829013,1.0350063197254689,0,0,0,1
1.642081725337341,0.04415031076829013,-1.016471380274531,0,0,0,1
2.011783125337341,-0.26641200423170985,-3.3419344802745314,0,0,0,1
1.379178525337341,-0.3272023042317099,0.5382685197254689,0,0,0,1
-0.6820254146626591,-0.7020722442317099,0.047412244725468775,0,0,0,1
-2.2714237746626593,0.1909497857682901,0.12332233972546877,0,0,0,1
-2.2531771746626594,1.70328741576829,1.6086240197254689,0,0,0,1
-2.2531771746626594,1.70328741576829,1.6086240197254689,0,0,0,1
0.4879794253373409,1.16889501576829,-2.5679316802745316,0,0,0,1
3.338068525337341,0.48127506576829016,-0.7513486502745311,0,0,0,1
3.338068525337341,0.48127506576829016,-0.7513486502745311,0,0,0,1
0.7947287753373409,-1.24818988423171,-2.5307596802745316,0,0,0,1
1.172586025337341,-0.8563810442317099,-2.4655385802745315,0,0,0,1
2.4226527253373407,-0.05098968423170987,2.9515703197254686,0,0,0,1
-2.3617552746626593,-0.6822560842317098,0.4634468797254688,0,0,0,1
-5.355200274662659,-1.33306308423171,-1.6929490802745313,0,0,0,1
-2.2682722746626593,-1.09436418423171,3.3413851197254685,0,0,0,1
-0.5343975746626591,-0.35360954423170987,4.035300019725469,0,0,0,1
-0.8851151346626591,0.5896241157682901,1.0578980197254688,0,0,0,1
-0.8851151346626591,0.5896241157682901,1.0578980197254688,0,0,0,1
4.393017325337341,0.5681534557682901,-1.2410392802745311,0,0,0,1
1.737655225337341,-0.7893413842317099,-0.06295720027453122,0,0,0,1
1.737655225337341,-0.7893413842317099,-0.06295720027453122,0,0,0,1
-0.5612320746626591,-1.10510418423171,1.1109106197254688,0,0,0,1
-3.244054274662659,-0.5816829842317098,0.24826681972546877,0,0,0,1
-3.730016674662659,1.62435821576829,2.1952503197254685,0,0,0,1
3.089520025337341,0.9046548157682901,-0.3560838402745312,0,0,0,1
3.510569125337341,-1.44147288423171,-2.3942706802745315,0,0,0,1
3.716144125337341,-2.6549074842317095,-0.6151825502745312,0,0,0,1
3.716144125337341,-2.6549074842317095,-0.6151825502745312,0,0,0,1
2.0573487253373406,-2.31586928423171,0.7059392597254688,0,0,0,1
-2.153527674662659,-1.31760938423171,-1.5817824802745313,0,0,0,1
-4.551395274662659,0.06995930076829013,-0.6477145802745312,0,0,0,1
-4.551395274662659,0.06995930076829013,-0.6477145802745312,0,0,0,1
-0.7026667446626591,0.39470941576829016,-1.9252924802745313,0,0,0,1
-0.7026667446626591,0.39470941576829016,-1.9252924802745313,0,0,0,1
3.890696025337341,-0.42517428423170983,-2.0988020802745315,0,0,0,1
5.717832125337341,-0.21273041423170988,-0.08846101027453122,0,0,0,1
2.258734225337341,0.45051111576829017,-2.8365294802745313,0,0,0,1
0.5715861253373409,1.1963593157682901,-2.3295454802745312,0,0,0,1
0.2274651653373409,1.37201071576829,3.1614615197254685,0,0,0,1
0.2274651653373409,1.37201071576829,3.1614615197254685,0,0,0,1
-4.012825274662659,0.31562711576829017,-1.4225417802745313,0,0,0,1
-4.012825274662659,0.31562711576829017,-1.4225417802745313,0,0,0,1
1.461973725337341,-1.49992248423171,-2.9175581802745314,0,0,0,1
1.461973725337341,-1.49992248423171,-2.9175581802745314,0,0,0,1
1.629613425337341,-1.1812586842317099,-2.296622080274531,0,0,0,1
-2.399235674662659,0.6935886157682901,-0.8727842302745312,0,0,0,1
-2.6964621746626594,1.66799711576829,3.3520367197254686,0,0,0,1
-2.6964621746626594,1.66799711576829,3.3520367197254686,0,0,0,1
-1.497644874662659,1.64115941576829,3.5938961197254686,0,0,0,1
3.7646403253373406,-0.22355431423170988,-0.2908091302745312,0,0,0,1
4.3064457253373405,0.032727289768290126,-2.8694853802745315,0,0,0,1
4.3064457253373405,0.032727289768290126,-2.8694853802745315,0,0,0,1
-6.637033874662659,0.48871894576829017,2.9776883197254684,0,0,0,1
-5.887293274662659,0.07903690976829013,5.3225657197254685,0,0,0,1
-5.887293274662659,0.07903690976829013,5.3225657197254685,0,0,0,1
-3.213280674662659,-0.9537191842317099,2.5649049197254685,0,0,0,1
-3.213280674662659,-0.9537191842317099,2.5649049197254685,0,0,0,1
7.364353725337341,-0.10451231423170987,-0.7108249402745311,0,0,0,1
