acc_x,acc_y,acc_z,gyro_x,gyro_y,gyro_z,label
-4.967359274662659,-0.5269901842317098,-0.5311697802745312,0,0,0,1
-4.967359274662659,-0.5269901842317098,-0.5311697802745312,0,0,0,1
0.8909001253373409,1.59520841576829,0.8915016197254688,0,0,0,1
3.8729177253373406,1.24046171576829,0.8688800197254688,0,0,0,1
3.8729177253373406,1.24046171576829,0.8688800197254688,0,0,0,1
1.527106725337341,-0.8534550842317099,-2.7748711802745314,0,0,0,1
-2.089686274662659,-2.1347445842317097,-2.0371156802745314,0,0,0,1
-6.066742274662659,-1.38498098423171,-1.2269408802745312,0,0,0,1
-4.248012274662659,1.28311091576829,2.083501319725469,0,0,0,1
-0.2933106246626591,1.07890271576829,2.468309619725469,0,0,0,1
5.583813225337341,-0.8629358842317099,1.1584364197254688,0,0,0,1
5.583813225337341,-0.8629358842317099,1.1584364197254688,0,0,0,1
6.383702725337341,-1.5071885842317099,0.19054695972546878,0,0,0,1
0.1923117753373409,0.1786343357682901,-2.316841880274531,0,0,0,1
0.1923117753373409,0.1786343357682901,-2.316841880274531,0,0,0,1
-3.488518674662659,1.50760631576829,-0.6747679802745312,0,0,0,1
-2.0195416746626593,0.34351568576829017,1.1972662197254689,0,0,0,1
-2.0195416746626593,0.34351568576829017,1.1972662197254689,0,0,0,1
4.654143725337341,-1.72911388423171,1.676408719725469,0,0,0,1
5.570257725337341,-1.65371238423171,1.417745519725469,0,0,0,1
4.266311225337341,-0.2339818542317099,1.3551216197254687,0,0,0,1
4.266311225337341,-0.2339818542317099,1.3551216197254687,0,0,0,1
4.266311225337341,-0.2339818542317099,1.3551216197254687,0,0,0,1
-2.9976392746626592,-1.00511028423171,-0.6355133402745312,0,0,0,1
-2.9961828746626593,-1.7059001842317099,-0.3069372502745312,0,0,0,1
0.4478535853373409,-0.3579391042317099,1.3670833197254688,0,0,0,1
2.4786277253373408,1.03620241576829,0.9200187197254688,0,0,0,1
2.4786277253373408,1.03620241576829,0.9200187197254688,0,0,0,1
4.3426080253373405,1.38490881576829,2.3114106197254687,0,0,0,1
3.357521525337341,-0.7645857142317098,0.12817212972546876,0,0,0,1
0.07906295533734088,-1.44963158423171,-1.0336879802745311,0,0,0,1
-3.829758674662659,1.35863161576829,-0.16259304027453123,0,0,0,1
-3.829758674662659,1.35863161576829,-0.16259304027453123,0,0,0,1
0.34310104533734087,3.3470392157682904,0.9153424797254688,0,0,0,1
3.999743725337341,1.9559554157682901,0.19208671972546876,0,0,0,1
3.999743725337341,1.9559554157682901,0.19208671972546876,0,0,0,1
5.200349325337341,0.36060579576829016,-1.0677409802745312,0,0,0,1
5.200349325337341,0.36060579576829016,-1.0677409802745312,0,0,0,1
-0.1843294946626591,-1.87477528423171,-0.7560242802745312,0,0,0,1
-3.640427574662659,0.41594203576829014,0.26944055972546876,0,0,0,1
-5.257623674662659,2.81497861576829,0.8201087197254688,0,0,0,1
-5.257623674662659,2.81497861576829,0.8201087197254688,0,0,0,1
1.252045125337341,1.1408960157682901,0.7024848197254688,0,0,0,1
3.060778125337341,-1.1200653842317099,-0.3560084402745312,0,0,0,1
3.5772309253373407,-2.0216838842317095,-0.9531595802745312,0,0,0,1
3.0286059253373407,-1.59119318423171,-0.9355491802745312,0,0,0,1
3.0286059253373407,-1.59119318423171,-0.9355491802745312,0,0,0,1
3.0286059253373407,-1.59119318423171,-0.9355491802745312,0,0,0,1
3.0286059253373407,-1.59119318423171,-0.9355491802745312,0,0,0,1
-3.7661152746626594,1.78822831576829,0.11897119972546877,0,0,0,1
-2.8264922746626593,0.8571011557682902,0.06079312972546878,0,0,0,1
-2.8264922746626593,0.8571011557682902,0.06079312972546878,0,0,0,1
-0.7758364746626591,-0.2317880042317099,-0.021634371274531224,0,0,0,1
0.8625683953373409,-0.2028579842317099,0.018773047725468773,0,0,0,1
2.106687125337341,-0.2028579842317099,0.018773047725468773,0,0,0,1
2.106687125337341,-0.2028579842317099,0.018773047725468773,0,0,0,1
2.316392425337341,0.6702800557682902,0.14592047972546876,0,0,0,1
-1.8244900746626591,0.6414649157682901,0.06310781972546876,0,0,0,1
-1.814683874662659,0.22786598576829012,0.061911909725468776,0,0,0,1
-0.4153532746626591,0.29868649576829015,-0.41891758027453124,0,0,0,1
0.9814954253373409,-0.33851133423170987,-0.11881056627453122,0,0,0,1
0.9814954253373409,-0.33851133423170987,-0.11881056627453122,0,0,0,1
0.9814954253373409,-0.33851133423170987,-0.11881056627453122,0,0,0,1
-1.785856274662659,0.8538638157682902,1.2706675197254689,0,0,0,1
-0.6266598746626592,-0.8548620142317098,-0.14129356027453122,0,0,0,1
-0.6266598746626592,-0.8548620142317098,-0.14129356027453122,0,0,0,1
-0.6266598746626592,-0.8548620142317098,-0.14129356027453122,0,0,0,1
1.173251625337341,-1.32416868423171,-0.6953543802745312,0,0,0,1
1.173251625337341,-1.32416868423171,-0.6953543802745312,0,0,0,1
-0.6438927746626592,0.1303139557682901,0.6120914197254689,0,0,0,1
-1.482139074662659,0.05737541176829013,0.12840535972546877,0,0,0,1
-1.482139074662659,0.05737541176829013,0.12840535972546877,0,0,0,1
-1.010282974662659,0.10877798076829014,0.3243224897254688,0,0,0,1
-0.2894072346626591,-0.02861798923170987,0.3019329597254688,0,0,0,1
1.637952325337341,0.31863303576829016,0.27575571972546875,0,0,0,1
1.568178725337341,0.7634387157682901,0.15201535972546876,0,0,0,1
1.568178725337341,0.7634387157682901,0.15201535972546876,0,0,0,1
0.2963023253373409,0.34671549576829014,-0.16111949027453124,0,0,0,1
-0.9267277746626591,-1.28419008423171,-0.3500486302745312,0,0,0,1
-0.6329617346626591,-0.30007258423170985,-0.2580150102745312,0,0,0,1
0.11184646533734088,1.09406391576829,0.11286058972546877,0,0,0,1
0.11184646533734088,1.09406391576829,0.11286058972546877,0,0,0,1
0.1697659653373409,-0.12143597423170988,0.08351405972546877,0,0,0,1
0.1697659653373409,-0.12143597423170988,0.08351405972546877,0,0,0,1
-1.445618174662659,-2.56298778423171,0.09449079472546877,0,0,0,1
-1.096534274662659,-1.3447780842317099,0.5330301197254689,0,0,0,1
0.04931785333734089,2.4346616157682903,1.1209259197254688,0,0,0,1
0.04931785333734089,2.4346616157682903,1.1209259197254688,0,0,0,1
2.102748425337341,0.09619584976829013,-0.6441349802745312,0,0,0,1
2.102748425337341,0.09619584976829013,-0.6441349802745312,0,0,0,1
2.102748425337341,0.09619584976829013,-0.6441349802745312,0,0,0,1
-1.577781174662659,-0.5617276842317098,-0.9028923202745311,0,0,0,1
0.4555907453373409,0.5197138157682901,0.6278021597254688,0,0,0,1
0.4555907453373409,0.5197138157682901,0.6278021597254688,0,0,0,1
1.502524825337341,-0.7215797842317099,0.6865232197254688,0,0,0,1
1.502524825337341,-0.7215797842317099,0.6865232197254688,0,0,0,1
-1.454069574662659,-0.09241212423170987,-0.11331257027453123,0,0,0,1
-1.454069574662659,-0.09241212423170987,-0.11331257027453123,0,0,0,1
-1.642281074662659,0.40125899576829016,0.07392790972546877,0,0,0,1
-0.7152962746626591,1.10965051576829,-0.12385914027453122,0,0,0,1
0.25705672533734086,1.09049271576829,-0.36205533027453124,0,0,0,1
0.5354504753373409,-0.32989868423170987,-0.27303723027453125,0,0,0,1
-0.21228168466265912,-0.8547940842317099,-0.30064014027453123,0,0,0,1
-0.21228168466265912,-0.8547940842317099,-0.30064014027453123,0,0,0,1
-1.068101374662659,-0.4562673642317099,0.3560281197254688,0,0,0,1
-1.068101374662659,-0.4562673642317099,0.3560281197254688,0,0,0,1
-0.2805914746626591,1.18400811576829,0.7039127597254689,0,0,0,1
-0.2805914746626591,1.18400811576829,0.7039127597254689,0,0,0,1
-1.095550974662659,-1.84031028423171,-0.4408774802745312,0,0,0,1
-0.8116278746626591,-1.68384728423171,-0.22544780027453123,0,0,0,1
0.048486248337340894,0.04873705276829013,0.3764390197254688,0,0,0,1
0.048486248337340894,0.04873705276829013,0.3764390197254688,0,0,0,1
1.239501525337341,1.6710998157682901,0.7739414197254688,0,0,0,1
1.959327225337341,2.1638103157682904,0.4532978197254688,0,0,0,1
-3.262381574662659,-1.21063698423171,-1.2180140802745312,0,0,0,1
-3.262381574662659,-1.21063698423171,-1.2180140802745312,0,0,0,1
-3.2637662746626592,-1.21380568423171,-1.237513080274531,0,0,0,1
-3.302600874662659,-1.44220328423171,-0.8429818502745312,0,0,0,1
-0.017839892662659104,0.25782899576829016,1.3739233197254688,0,0,0,1
2.222588125337341,0.9929089157682901,1.1587321197254687,0,0,0,1
3.528453325337341,0.01949020776829013,0.5733867197254688,0,0,0,1
2.0905375253373406,-0.6667063842317098,-0.3435078002745312,0,0,0,1
-0.5817360746626591,-0.3932728542317099,-0.5033108302745312,0,0,0,1
-0.5817360746626591,-0.3932728542317099,-0.5033108302745312,0,0,0,1
-0.5817360746626591,-0.3932728542317099,-0.5033108302745312,0,0,0,1
-3.053883574662659,0.7907840757682901,-0.5937597802745311,0,0,0,1
-0.1953701746626591,0.8343465157682901,0.37763204972546877,0,0,0,1
3.551408325337341,-1.04629838423171,0.8296416697254688,0,0,0,1
3.551408325337341,-1.04629838423171,0.8296416697254688,0,0,0,1
3.551408325337341,-1.04629838423171,0.8296416697254688,0,0,0,1
3.525658125337341,-1.05536638423171,0.9235708197254688,0,0,0,1
1.705813925337341,0.2519276657682901,1.2123223197254689,0,0,0,1
0.3914179953373409,2.61837091576829,0.8680108197254688,0,0,0,1
0.1867747453373409,3.0887427157682903,0.04315343372546878,0,0,0,1
1.110844125337341,-0.5882786842317098,-1.885592680274531,0,0,0,1
1.110844125337341,-0.5882786842317098,-1.885592680274531,0,0,0,1
0.7770419253373408,-1.96867158423171,-1.939024080274531,0,0,0,1
0.7770419253373408,-1.96867158423171,-1.939024080274531,0,0,0,1
0.2048220753373409,0.07799587576829013,1.3798382197254688,0,0,0,1
2.408165425337341,-1.71624228423171,-0.4889813402745312,0,0,0,1
2.408165425337341,-1.71624228423171,-0.4889813402745312,0,0,0,1
-1.673659774662659,1.1021917157682901,-1.705089080274531,0,0,0,1
-1.456966874662659,0.21664797576829012,-1.4424545802745312,0,0,0,1
-1.413038674662659,-0.27061210423170984,-0.9031910802745312,0,0,0,1
1.530533325337341,0.5749727657682902,0.12218781972546877,0,0,0,1
1.178603625337341,0.04090885576829013,0.6009357897254688,0,0,0,1
-0.6882996446626591,1.42892841576829,-0.8351403802745312,0,0,0,1
-0.6882996446626591,1.42892841576829,-0.8351403802745312,0,0,0,1
0.4428496553373409,0.46737511576829016,-1.7430928802745311,0,0,0,1
-0.6790251746626591,-0.1906363442317099,-0.8442443802745312,0,0,0,1
-0.3249440046626591,-0.6452377242317099,0.4305242197254688,0,0,0,1
-0.8918080146626591,-0.13566411423170988,1.1590174197254688,0,0,0,1
-0.2683110046626591,0.7510661157682902,1.7535867197254689,0,0,0,1
-0.8820462046626592,-0.26012490423170986,-0.6040023302745312,0,0,0,1
-0.8820462046626592,-0.26012490423170986,-0.6040023302745312,0,0,0,1
-0.2527842346626591,-0.012639504231709871,0.31288569972546876,0,0,0,1
-0.07238243466265912,1.03759531576829,1.0062198197254688,0,0,0,1
-0.3406510146626591,0.8638665857682901,0.7881914197254688,0,0,0,1
-0.8162331446626591,0.02664329476829013,-0.3668220902745312,0,0,0,1
-0.8162331446626591,0.02664329476829013,-0.3668220902745312,0,0,0,1
-1.005874174662659,0.14605410576829012,-0.5470809802745312,0,0,0,1
-1.005938074662659,0.14348863576829013,-0.5484896802745312,0,0,0,1
0.3204512753373409,0.22829778576829013,0.6941325197254689,0,0,0,1
0.3204512753373409,0.22829778576829013,0.6941325197254689,0,0,0,1
0.3566584753373409,1.46346351576829,0.5858241197254688,0,0,0,1
0.9715390253373409,0.9814188657682902,0.24110054972546877,0,0,0,1
0.5478606253373409,-0.36149094423170985,-0.9308505802745312,0,0,0,1
0.44515849533734086,-0.1281287442317099,-0.9526748402745312,0,0,0,1
0.21325732533734088,0.44395716576829014,-0.7307442802745312,0,0,0,1
