acc_x,acc_y,acc_z,gyro_x,gyro_y,gyro_z,label
0.06765510533734088,0.6801350157682902,-0.3247523002745312,0,0,0,1
1.538654825337341,-0.29419754423170985,-1.8793759802745311,0,0,0,1
2.9592929253373406,-1.52978658423171,-1.1114381802745312,0,0,0,1
0.19303180533734088,-1.1434161842317099,-0.39774850027453124,0,0,0,1
0.19303180533734088,-1.1434161842317099,-0.39774850027453124,0,0,0,1
0.19303180533734088,-1.1434161842317099,-0.39774850027453124,0,0,0,1
-2.999531774662659,0.5379438557682902,0.5592722597254688,0,0,0,1
-1.916643574662659,1.40085421576829,1.784073519725469,0,0,0,1
1.403855825337341,0.15008177576829013,0.012409297725468775,0,0,0,1
2.0853657253373408,-1.37887878423171,-0.6762814802745312,0,0,0,1
2.0853657253373408,-1.37887878423171,-0.6762814802745312,0,0,0,1
1.281446025337341,-1.9855681842317099,-1.4349031802745311,0,0,0,1
1.281446025337341,-1.9855681842317099,-1.4349031802745311,0,0,0,1
-1.042796574662659,-0.7181410842317099,-1.4498710802745312,0,0,0,1
-1.042796574662659,-0.7181410842317099,-1.4498710802745312,0,0,0,1
-2.0759744746626594,1.04921821576829,-0.8788258802745311,0,0,0,1
0.7411112953373409,1.8354262157682901,0.5761064197254688,0,0,0,1
1.409506325337341,0.27133323576829016,0.38481988972546877,0,0,0,1
2.0179277253373407,-1.41835268423171,-0.29640010027453123,0,0,0,1
2.1544270253373408,-2.33100148423171,-0.08704653527453123,0,0,0,1
1.343966025337341,-0.6878411842317098,0.3630634197254688,0,0,0,1
-0.40953014466265913,1.18761841576829,0.6033177197254688,0,0,0,1
-1.831845774662659,1.06862491576829,0.5311128797254688,0,0,0,1
-1.189111274662659,0.11446859576829013,-0.34967342027453124,0,0,0,1
-1.189111274662659,0.11446859576829013,-0.34967342027453124,0,0,0,1
0.8703246253373409,-0.6264047842317099,-0.9361071802745312,0,0,0,1
1.132641325337341,0.4525537157682901,-0.5774849802745312,0,0,0,1
0.7820916253373409,0.8449739157682902,-0.39700326027453126,0,0,0,1
0.7820916253373409,0.8449739157682902,-0.39700326027453126,0,0,0,1
1.026462125337341,0.31143816576829014,-0.32822493027453126,0,0,0,1
1.026462125337341,0.31143816576829014,-0.32822493027453126,0,0,0,1
1.009228225337341,-0.4348089842317099,0.12526353972546878,0,0,0,1
-0.4202713746626591,0.2108623857682901,0.6569002597254688,0,0,0,1
-0.4966015746626591,0.7251040157682901,0.48868363972546874,0,0,0,1
0.6258206253373408,0.5094873457682901,-0.11562845027453122,0,0,0,1
0.6258206253373408,0.5094873457682901,-0.11562845027453122,0,0,0,1
0.6258206253373408,0.5094873457682901,-0.11562845027453122,0,0,0,1
1.454227025337341,-0.0026365632317098715,-0.5761762802745312,0,0,0,1
-0.21856640466265911,0.3263212657682901,-0.7342817502745311,0,0,0,1
-1.195314874662659,0.0029195730682901287,-0.6943168802745312,0,0,0,1
-1.195314874662659,0.0029195730682901287,-0.6943168802745312,0,0,0,1
-0.2637228746626591,-0.04156164423170987,0.9607131197254688,0,0,0,1
1.661228725337341,-1.37632328423171,-0.7505297402745311,0,0,0,1
0.011038319337340896,1.2480584157682901,-0.06407013727453123,0,0,0,1
0.011038319337340896,1.2480584157682901,-0.06407013727453123,0,0,0,1
-0.5683026146626591,-1.11629958423171,0.19228538972546877,0,0,0,1
0.7649684253373409,-1.40786698423171,0.6479284197254688,0,0,0,1
0.7649684253373409,-1.40786698423171,0.6479284197254688,0,0,0,1
0.8907923853373408,-0.44829071423170985,1.0106271197254688,0,0,0,1
0.4056964053373409,0.03413422576829013,0.6491395497254688,0,0,0,1
0.6342025253373409,-0.5752874442317099,-0.6527134802745311,0,0,0,1
0.6342025253373409,-0.5752874442317099,-0.6527134802745311,0,0,0,1
1.673520625337341,-0.33587778423170983,-0.3908254202745312,0,0,0,1
-0.0561775996626591,-0.34701905423170987,-0.6155547802745311,0,0,0,1
-0.0561775996626591,-0.34701905423170987,-0.6155547802745311,0,0,0,1
-0.8858275246626591,-0.9283012842317099,0.08091237972546877,0,0,0,1
-0.8858275246626591,-0.9283012842317099,0.08091237972546877,0,0,0,1
-0.7154354746626591,0.29091383576829016,0.7051864197254688,0,0,0,1
1.005484125337341,-0.06525759423170988,0.4151162797254688,0,0,0,1
2.777693325337341,-0.8679023242317099,-0.3928947202745312,0,0,0,1
1.859682625337341,-1.14310188423171,-0.8928333802745312,0,0,0,1
1.859682625337341,-1.14310188423171,-0.8928333802745312,0,0,0,1
-1.117865074662659,0.09557213576829013,-0.3200264302745312,0,0,0,1
-1.117865074662659,0.09557213576829013,-0.3200264302745312,0,0,0,1
-1.511293874662659,-0.24508462423170987,-0.4314281102745312,0,0,0,1
0.2552342553373409,-1.27209848423171,-0.2615777602745312,0,0,0,1
1.235719225337341,-1.6204802842317099,-0.20562962027453122,0,0,0,1
1.524428825337341,-1.42218228423171,-0.39734522027453123,0,0,0,1
2.1999173253373407,-0.45630268423170983,-0.13371298027453124,0,0,0,1
-2.9566335746626593,0.7069830157682901,0.24141916972546876,0,0,0,1
-2.9566335746626593,0.7069830157682901,0.24141916972546876,0,0,0,1
-2.9566335746626593,0.7069830157682901,0.24141916972546876,0,0,0,1
0.44071342533734087,0.09727956576829012,0.30609471972546876,0,0,0,1
1.010131325337341,-0.08810768423170987,-0.47060518027453124,0,0,0,1
2.067269725337341,-0.7399092842317099,-0.5214999802745311,0,0,0,1
2.067269725337341,-0.7399092842317099,-0.5214999802745311,0,0,0,1
1.103461725337341,-0.30229525423170983,-0.37202320027453123,0,0,0,1
-0.9425577746626591,0.9729062157682902,0.20409568972546877,0,0,0,1
-0.9425577746626591,0.9729062157682902,0.20409568972546877,0,0,0,1
-0.9425577746626591,0.9729062157682902,0.20409568972546877,0,0,0,1
1.865753725337341,-0.3671674542317099,0.5657148197254688,0,0,0,1
1.865753725337341,-0.3671674542317099,0.5657148197254688,0,0,0,1
1.761770725337341,-0.1400290542317099,0.37204285972546874,0,0,0,1
0.07420875533734089,0.19139956576829012,0.43295528972546876,0,0,0,1
-1.233614474662659,0.5091088557682901,-0.07355979027453123,0,0,0,1
-1.077552274662659,0.17941920576829012,0.10279568972546876,0,0,0,1
-0.7729353746626592,-0.11762140423170987,-0.3721798402745312,0,0,0,1
-0.7729353746626592,-0.11762140423170987,-0.3721798402745312,0,0,0,1
-0.7729353746626592,-0.11762140423170987,-0.3721798402745312,0,0,0,1
1.443285525337341,-1.11038208423171,-0.7680963802745312,0,0,0,1
1.443285525337341,-1.11038208423171,-0.7680963802745312,0,0,0,1
2.480701025337341,-0.060720244231709866,0.10901912972546877,0,0,0,1
2.480701025337341,-0.060720244231709866,0.10901912972546877,0,0,0,1
1.227635925337341,1.27850391576829,0.15513613972546877,0,0,0,1
-1.822146374662659,-0.3016379242317099,0.046306936725468775,0,0,0,1
-2.366825074662659,-0.7892709842317098,-0.4469769302745312,0,0,0,1
-2.366825074662659,-0.7892709842317098,-0.4469769302745312,0,0,0,1
-2.366825074662659,-0.7892709842317098,-0.4469769302745312,0,0,0,1
-0.7043070746626591,-0.8229417842317098,-0.39068750027453125,0,0,0,1
1.642537625337341,-0.31891378423170985,-0.3203187302745312,0,0,0,1
1.642537625337341,-0.31891378423170985,-0.3203187302745312,0,0,0,1
2.3518957253373407,0.08793159176829013,-0.6740783802745312,0,0,0,1
1.802076825337341,-1.08744788423171,-0.9193121802745312,0,0,0,1
0.7533240253373409,-0.42772952423170985,-0.20091900027453122,0,0,0,1
-1.439681474662659,1.09804651576829,0.24938967972546877,0,0,0,1
-2.434652274662659,1.67638411576829,0.7744961197254688,0,0,0,1
-2.434652274662659,1.67638411576829,0.7744961197254688,0,0,0,1
-0.6585917346626591,0.7508951657682902,0.8412707197254689,0,0,0,1
-0.6585917346626591,0.7508951657682902,0.8412707197254689,0,0,0,1
1.290764325337341,-0.5060691842317099,0.5498667197254689,0,0,0,1
1.600725725337341,-0.6435256442317099,-0.17208043027453124,0,0,0,1
1.600725725337341,-0.6435256442317099,-0.17208043027453124,0,0,0,1
-2.052743374662659,0.32993473576829013,-0.2984984202745312,0,0,0,1
0.5273947853373409,-0.5186454442317099,0.13344337972546877,0,0,0,1
0.5273947853373409,-0.5186454442317099,0.13344337972546877,0,0,0,1
2.1444440253373407,-1.06434608423171,0.3051378997254688,0,0,0,1
2.136732625337341,-0.7976711242317098,0.5647942197254688,0,0,0,1
2.019969525337341,-0.4460251142317099,0.7218816197254688,0,0,0,1
2.019969525337341,-0.4460251142317099,0.7218816197254688,0,0,0,1
2.019969525337341,-0.4460251142317099,0.7218816197254688,0,0,0,1
-0.09565017966265911,1.14926961576829,0.47331711972546875,0,0,0,1
-1.653220674662659,2.08326011576829,-0.29212598027453124,0,0,0,1
-1.653220674662659,2.08326011576829,-0.29212598027453124,0,0,0,1
-0.4203219246626591,0.1337455657682901,-1.0794477802745313,0,0,0,1
-0.4203219246626591,0.1337455657682901,-1.0794477802745313,0,0,0,1
-0.023345454662659106,-2.6974095842317096,-2.0534441802745316,0,0,0,1
0.9126897253373409,-2.7362980842317097,-0.06321433327453123,0,0,0,1
1.232415725337341,-0.6475202242317099,0.7708662197254689,0,0,0,1
1.416471025337341,1.40176461576829,2.0950543197254685,0,0,0,1
1.492020125337341,1.9613199157682901,2.5334997197254685,0,0,0,1
1.492020125337341,1.9613199157682901,2.5334997197254685,0,0,0,1
1.113778625337341,1.25488901576829,1.0501893197254688,0,0,0,1
0.0363001983373409,-0.43482415423170984,-0.6378888202745312,0,0,0,1
0.0363001983373409,-0.43482415423170984,-0.6378888202745312,0,0,0,1
-1.077582774662659,-1.52680588423171,-1.2728099802745312,0,0,0,1
-2.6208032746626593,0.1843271757682901,-1.3162357802745313,0,0,0,1
-0.8569178446626591,0.8899017757682901,-0.8937422302745311,0,0,0,1
-0.8569178446626591,0.8899017757682901,-0.8937422302745311,0,0,0,1
2.0460420253373406,1.29295441576829,-0.35060921027453124,0,0,0,1
1.887747325337341,2.0171638157682903,0.11571242972546877,0,0,0,1
1.887747325337341,2.0171638157682903,0.11571242972546877,0,0,0,1
0.9106974753373409,0.9547237157682902,-0.37759248027453124,0,0,0,1
0.8081755753373409,-1.3667221842317099,-0.37683378027453124,0,0,0,1
-1.167928174662659,-2.69922038423171,-0.024889620274531225,0,0,0,1
-3.0703100746626593,0.10045232576829013,1.4370102197254688,0,0,0,1
-3.0703100746626593,0.10045232576829013,1.4370102197254688,0,0,0,1
0.3976216453373409,1.0930687157682901,2.0677011197254687,0,0,0,1
0.3976216453373409,1.0930687157682901,2.0677011197254687,0,0,0,1
2.391671725337341,-0.6120903342317099,-1.6752772802745313,0,0,0,1
2.291864925337341,-2.1302080842317097,-2.5650532802745314,0,0,0,1
0.1906171053373409,-1.18623958423171,-1.788811280274531,0,0,0,1
0.1906171053373409,-1.18623958423171,-1.788811280274531,0,0,0,1
0.1906171053373409,-1.18623958423171,-1.788811280274531,0,0,0,1
-2.6598972746626592,1.2821496157682901,-0.5837971302745312,0,0,0,1
0.21866752533734088,2.0178585157682902,2.050246319725469,0,0,0,1
0.21866752533734088,2.0178585157682902,2.050246319725469,0,0,0,1
1.398372225337341,0.00888081236829013,0.9183890197254688,0,0,0,1
0.7874093253373409,-1.57789368423171,-0.2586750102745312,0,0,0,1
0.3371052853373409,-2.35990808423171,-0.3446610302745312,0,0,0,1
0.3371052853373409,-2.35990808423171,-0.3446610302745312,0,0,0,1
-1.072508274662659,-0.7509552842317099,-0.14949921027453122,0,0,0,1
-2.098154974662659,1.33589081576829,-0.06266549427453122,0,0,0,1
-0.6340060046626591,2.0044929157682905,-0.07939860027453123,0,0,0,1
-0.6340060046626591,2.0044929157682905,-0.07939860027453123,0,0,0,1
2.120916825337341,-0.6691879442317099,-0.7389368802745312,0,0,0,1
2.120916825337341,-0.6691879442317099,-0.7389368802745312,0,0,0,1
0.9499764553373409,-0.9983106842317099,-0.44095518027453123,0,0,0,1
-0.024876101662659106,-0.5518492842317099,0.34905763972546877,0,0,0,1
-1.308739174662659,1.58793501576829,1.1992851197254688,0,0,0,1
-0.8680605746626591,0.8426990157682901,0.9041436597254688,0,0,0,1
-0.8680605746626591,0.8426990157682901,0.9041436597254688,0,0,0,1
0.19842197533734088,0.6081406157682901,0.18459078972546877,0,0,0,1
1.359630125337341,0.8233971757682902,-0.39681503027453124,0,0,0,1
-1.018763074662659,-0.9244956842317098,-0.7164047802745311,0,0,0,1
-1.018763074662659,-0.9244956842317098,-0.7164047802745311,0,0,0,1
-1.407840274662659,-0.06841049423170988,0.5279289797254688,0,0,0,1
2.612359525337341,0.19673477576829013,0.8304740197254689,0,0,0,1
0.5318360253373409,-0.7688401842317099,-0.8982436402745312,0,0,0,1
0.5318360253373409,-0.7688401842317099,-0.8982436402745312,0,0,0,1
-1.716812574662659,0.21054353576829013,-0.9773376802745312,0,0,0,1
-0.43928477466265914,-0.2134163842317099,-0.4994986402745312,0,0,0,1
0.3860764653373409,0.10860203576829013,-0.11062029027453123,0,0,0,1
0.3860764653373409,0.10860203576829013,-0.11062029027453123,0,0,0,1
2.173650325337341,0.30084341576829016,0.7078448197254689,0,0,0,1
2.173650325337341,0.30084341576829016,0.7078448197254689,0,0,0,1
2.701499525337341,0.49316021576829017,1.2248609197254687,0,0,0,1
2.701499525337341,0.49316021576829017,1.2248609197254687,0,0,0,1
-1.598853574662659,-1.11141998423171,0.005508450725468774,0,0,0,1
-1.824045674662659,-0.45970253423170987,-0.3536854802745312,0,0,0,1
-1.824045674662659,-0.45970253423170987,-0.3536854802745312,0,0,0,1
-0.7989067746626591,0.32300903576829015,-0.41833595027453124,0,0,0,1
-0.7989067746626591,0.32300903576829015,-0.41833595027453124,0,0,0,1
1.611930425337341,0.6332148457682901,-0.7404297802745312,0,0,0,1
2.827761225337341,0.5014589357682901,-0.4961177402745312,0,0,0,1
2.827761225337341,0.5014589357682901,-0.4961177402745312,0,0,0,1
