acc_x,acc_y,acc_z,gyro_x,gyro_y,gyro_z,label
0.8264298553373409,0.07023693976829012,-0.49997088027453124,0,0,0,1
0.10567809533734089,0.00883671976829013,-0.09092712527453123,0,0,0,1
0.15835620533734088,0.05783279576829013,-0.15763685027453123,0,0,0,1
0.20145656533734088,0.03718661076829013,-0.20975050027453124,0,0,0,1
0.20145656533734088,0.03718661076829013,-0.20975050027453124,0,0,0,1
0.20145656533734088,0.03718661076829013,-0.20975050027453124,0,0,0,1
0.20145656533734088,0.03718661076829013,-0.20975050027453124,0,0,0,1
0.20145656533734088,0.03718661076829013,-0.20975050027453124,0,0,0,1
0.20145656533734088,0.03718661076829013,-0.20975050027453124,0,0,0,1
0.1140694753373409,0.041751730768290134,-0.058572100274531226,0,0,0,1
0.1140694753373409,0.041751730768290134,-0.058572100274531226,0,0,0,1
0.1140694753373409,0.041751730768290134,-0.058572100274531226,0,0,0,1
0.1140694753373409,0.041751730768290134,-0.058572100274531226,0,0,0,1
0.1140694753373409,0.041751730768290134,-0.058572100274531226,0,0,0,1
0.1140694753373409,0.041751730768290134,-0.058572100274531226,0,0,0,1
0.1488185053373409,-0.04464383123170987,-0.03483583227453122,0,0,0,1
0.12966014533734088,-0.02460758023170987,0.07171256972546877,0,0,0,1
0.2182593553373409,0.09091440176829013,-0.3004601302745312,0,0,0,1
0.2182593553373409,0.09091440176829013,-0.3004601302745312,0,0,0,1
0.2482037753373409,0.02995401976829013,-0.21098325027453124,0,0,0,1
0.2482037753373409,0.02995401976829013,-0.21098325027453124,0,0,0,1
0.1620001953373409,-0.010127809231709872,0.003199590725468775,0,0,0,1
0.1596093353373409,0.03447735576829013,-0.20407012027453122,0,0,0,1
0.1596093353373409,0.03447735576829013,-0.20407012027453122,0,0,0,1
0.1596093353373409,0.03447735576829013,-0.20407012027453122,0,0,0,1
0.1596093353373409,0.03447735576829013,-0.20407012027453122,0,0,0,1
0.10211898533734089,0.03648548176829013,-0.04495567227453122,0,0,0,1
0.09973003133734089,-0.04087745823170987,-0.15637779027453122,0,0,0,1
0.21828700533734088,-0.005244415531709871,-0.2768997802745312,0,0,0,1
0.04589797533734089,-0.04721074923170987,0.08783252372546876,0,0,0,1
0.1608128753373409,0.05956064576829013,-0.26707983027453125,0,0,0,1
0.17884399533734088,0.009412470768290129,0.03624435972546878,0,0,0,1
0.17884399533734088,0.009412470768290129,0.03624435972546878,0,0,0,1
0.1309266253373409,0.01169941176829013,-0.09484929027453123,0,0,0,1
0.2230916253373409,-0.005849104231709871,-0.19163676027453122,0,0,0,1
0.2230916253373409,-0.005849104231709871,-0.19163676027453122,0,0,0,1
0.2302708753373409,-0.0009847249317098713,0.004505990725468774,0,0,0,1
0.039878385337340894,0.11336501576829013,-0.19193721027453123,0,0,0,1
0.14283324533734088,0.008109572768290128,0.04882678972546878,0,0,0,1
0.2098803653373409,0.08239353076829013,-0.2643886802745312,0,0,0,1
0.0925069013373409,0.007624420768290128,0.047725549725468774,0,0,0,1
0.09849788533734088,0.06630573576829013,-0.22360018027453124,0,0,0,1
0.2230286753373409,0.02808355176829013,-0.14052324027453122,0,0,0,1
0.1356253753373409,0.03813383376829013,-0.018462793274531226,0,0,0,1
0.1212706753373409,-0.04895437923170987,-0.15709269027453124,0,0,0,1
0.2110724653373409,-0.016060125231709868,-0.018855007274531224,0,0,0,1
0.2110724653373409,-0.016060125231709868,-0.018855007274531224,0,0,0,1
0.1978945853373409,-0.01701172823170987,-0.17781690027453123,0,0,0,1
0.037472265337340896,-0.025227752231709873,0.12915354972546877,0,0,0,1
0.3260159653373409,0.011580172768290129,-0.19863641027453122,0,0,0,1
0.06743289533734088,0.030761543768290128,0.027106536725468772,0,0,0,1
0.0578322553373409,0.026599455768290127,-0.16876267027453123,0,0,0,1
0.0578322553373409,0.026599455768290127,-0.16876267027453123,0,0,0,1
0.0578322553373409,0.026599455768290127,-0.16876267027453123,0,0,0,1
0.17160464533734088,0.029637220768290132,-0.15114048027453122,0,0,0,1
0.17160464533734088,0.029637220768290132,-0.15114048027453122,0,0,0,1
0.18837787533734088,-0.02619164823170987,-0.19032218027453124,0,0,0,1
0.18837787533734088,-0.02619164823170987,-0.19032218027453124,0,0,0,1
0.2015500253373409,-0.06416773423170986,-0.03129071127453122,0,0,0,1
0.10097839033734089,0.07086092576829013,-0.25319393027453124,0,0,0,1
0.10097839033734089,0.07086092576829013,-0.25319393027453124,0,0,0,1
0.2183184753373409,-0.013475668231709871,-0.20117673027453123,0,0,0,1
0.19317771533734088,-0.06255766423170987,-0.014521361974531227,0,0,0,1
0.10097839033734089,0.011201980768290128,0.07456269972546876,0,0,0,1
0.06505634033734088,0.09000313576829012,-0.09942493027453123,0,0,0,1
0.21831084533734088,-0.02401983423170987,-0.09405783027453123,0,0,0,1
0.2099232853373409,-0.03025582123170987,0.05303183972546878,0,0,0,1
0.2099232853373409,-0.03025582123170987,0.05303183972546878,0,0,0,1
0.1668162553373409,0.025756570768290125,-0.018049539274531224,0,0,0,1
0.027931705337340892,0.04496893576829013,0.028642071725468777,0,0,0,1
0.027931705337340892,0.04496893576829013,0.028642071725468777,0,0,0,1
0.0578370253373409,0.013186428768290128,-0.09882696027453124,0,0,0,1
0.2062888253373409,-0.03672589023170987,-0.20752230027453122,0,0,0,1
0.2961011053373409,-0.02258747423170987,-0.11113815027453124,0,0,0,1
0.2566113653373409,0.03534624276829013,-0.04962365527453122,0,0,0,1
0.2566113653373409,0.03534624276829013,-0.04962365527453122,0,0,0,1
0.06265308033734089,0.09705596576829013,-0.24220725027453122,0,0,0,1
0.08778812133734089,-0.02526516823170987,-0.12494162027453123,0,0,0,1
0.1656041253373409,0.08865113576829013,-0.27571728027453124,0,0,0,1
0.1656041253373409,0.08865113576829013,-0.27571728027453124,0,0,0,1
0.3152775953373409,0.06763903576829013,-0.32685360027453125,0,0,0,1
0.3152775953373409,0.06763903576829013,-0.32685360027453125,0,0,0,1
0.1440873253373409,-0.012927678231709872,0.03951827972546878,0,0,0,1
0.05667831133734089,0.03834045276829013,-0.15893862027453123,0,0,0,1
0.19316627533734088,0.029287385768290132,-0.14525436027453123,0,0,0,1
0.1907801753373409,0.03619030576829013,-0.12656428027453123,0,0,0,1
0.1704154153373409,0.020182880768290126,-0.11856683027453123,0,0,0,1
0.18358661533734089,-0.04651721923170987,-0.14511874027453123,0,0,0,1
0.1512389353373409,0.027454021768290128,0.11348951972546877,0,0,0,1
0.11171867033734088,0.11691598576829013,-0.05593356627453122,0,0,0,1
0.1512265353373409,0.09315897076829013,-0.2593261302745312,0,0,0,1
0.1512265353373409,0.09315897076829013,-0.2593261302745312,0,0,0,1
0.06620551533734088,0.0009427402682901287,0.06714394572546876,0,0,0,1
0.06620551533734088,0.0009427402682901287,0.06714394572546876,0,0,0,1
0.05304004533734089,0.05375166576829013,-0.19851542027453123,0,0,0,1
0.2110867653373409,0.02222168776829013,-0.3005904802745312,0,0,0,1
0.13687182533734088,0.013808655768290129,-0.06567813627453123,0,0,0,1
0.1775880053373409,0.02209659276829013,-0.26343358027453123,0,0,0,1
0.1775880053373409,0.02209659276829013,-0.26343358027453123,0,0,0,1
0.11774875533734089,0.002000439628290129,-0.11321495627453124,0,0,0,1
0.11655093533734089,-0.013061237231709872,-0.18552031027453122,0,0,0,1
0.032802121337340895,0.12285910576829014,-0.036263229274531225,0,0,0,1
0.039989965337340894,0.08341498576829014,-0.20009069027453122,0,0,0,1
0.039989965337340894,0.08341498576829014,-0.20009069027453122,0,0,0,1
0.10584689533734089,-0.027433168231709874,-0.12906778027453122,0,0,0,1
0.21837760533734088,0.027523878768290128,-0.12032332027453123,0,0,0,1
0.10701991533734088,0.0004175488682901286,0.08358654972546876,0,0,0,1
0.1273656053373409,0.06277523576829012,-0.20769940027453124,0,0,0,1
0.1273656053373409,0.06277523576829012,-0.20769940027453124,0,0,0,1
0.1273656053373409,0.06277523576829012,-0.20769940027453124,0,0,0,1
0.20997192533734088,0.06304059576829013,-0.0028367652745312257,0,0,0,1
0.20997192533734088,0.06304059576829013,-0.0028367652745312257,0,0,0,1
0.1381344953373409,0.04706940576829013,-0.11436062027453123,0,0,0,1
0.16208316533734088,-0.006518375231709872,-0.17775260027453124,0,0,0,1
0.16208316533734088,-0.006518375231709872,-0.17775260027453124,0,0,0,1
0.14532138533734087,-0.004329052231709872,0.029388515725468776,0,0,0,1
0.1429238453373409,0.07093894576829013,-0.050812560274531224,0,0,0,1
0.19560862533734089,0.07474710576829013,-0.2753759602745312,0,0,0,1
0.23512889533734088,-0.027801421231709873,-0.26060042027453123,0,0,0,1
0.045968548337340896,-0.03293877423170987,0.10747596472546878,0,0,0,1
0.2770199953373409,-0.019404750231709872,-0.17715931027453122,0,0,0,1
0.2770199953373409,-0.019404750231709872,-0.17715931027453122,0,0,0,1
0.2147994253373409,-0.051122081231709866,-0.027786495274531225,0,0,0,1
0.0854973953373409,0.01278895476829013,-0.20026079027453123,0,0,0,1
0.12021209533734088,0.014779257768290128,-0.21190211027453124,0,0,0,1
0.12021209533734088,0.014779257768290128,-0.21190211027453124,0,0,0,1
0.07473708533734089,-0.005009439231709871,-0.1254180402745312,0,0,0,1
0.11545230533734088,0.01316802576829013,-0.04349202027453122,0,0,0,1
0.2998614453373409,-0.05925161823170987,-0.15361537027453123,0,0,0,1
0.2998614453373409,-0.05925161823170987,-0.15361537027453123,0,0,0,1
0.1825328053373409,-0.013033476231709872,-0.010178954974531225,0,0,0,1
0.0687785313373409,0.06334660576829013,-0.16129482027453124,0,0,0,1
0.12505294533734088,-0.006788131231709871,-0.21269827027453123,0,0,0,1
0.1370215553373409,-0.016538840231709873,0.06401909972546876,0,0,0,1
0.1370215553373409,-0.016538840231709873,0.06401909972546876,0,0,0,1
0.1765275153373409,0.07331356576829014,-0.060530828274531226,0,0,0,1
0.2232279953373409,0.10225676576829013,-0.3030162502745312,0,0,0,1
0.1645569953373409,-0.003896799231709871,-0.0013058945745312257,0,0,0,1
0.1250252853373409,0.06020713176829013,-0.09310566027453122,0,0,0,1
0.1250252853373409,0.06020713176829013,-0.09310566027453122,0,0,0,1
0.21961547533734088,0.06652405576829012,-0.28158474027453123,0,0,0,1
0.21961547533734088,0.06652405576829012,-0.28158474027453123,0,0,0,1
0.11546088533734089,0.06128351576829013,-0.024109275274531227,0,0,0,1
0.13456107533734088,0.023233491768290128,-0.14100313027453124,0,0,0,1
0.13456107533734088,0.023233491768290128,-0.14100313027453124,0,0,0,1
0.2039990553373409,0.0006659661682901286,-0.08699797027453122,0,0,0,1
0.2039990553373409,0.0006659661682901286,-0.08699797027453122,0,0,0,1
0.1812281753373409,0.10672163576829014,-0.15019824027453124,0,0,0,1
0.08663131533734089,0.01223950476829013,-0.18404148027453124,0,0,0,1
0.08663131533734089,0.01223950476829013,-0.18404148027453124,0,0,0,1
0.08663131533734089,0.01223950476829013,-0.18404148027453124,0,0,0,1
0.032713429337340894,0.0077316797682901285,0.08946625972546877,0,0,0,1
0.1775469953373409,0.05136184576829013,-0.13574302027453122,0,0,0,1
0.3068671253373409,0.05295613576829013,-0.3091251002745312,0,0,0,1
0.1392884453373409,-0.02739575123170987,0.027125237725468775,0,0,0,1
0.1392884453373409,-0.02739575123170987,0.027125237725468775,0,0,0,1
0.05786182133734089,0.017339471768290128,-0.11705409027453123,0,0,0,1
0.09139491533734088,0.03554264076829013,-0.22784263027453122,0,0,0,1
0.26861812533734086,-0.029255997231709872,-0.04287243027453122,0,0,0,1
0.26861812533734086,-0.029255997231709872,-0.04287243027453122,0,0,0,1
0.2398915453373409,0.015162113768290129,-0.19955468027453124,0,0,0,1
0.06391002533734089,-0.0020742682317098715,-0.07633221027453123,0,0,0,1
0.07707454533734089,-0.0007848109317098715,0.07073115372546877,0,0,0,1
0.2459035053373409,0.04802510576829013,-0.23345111027453122,0,0,0,1
0.2602801453373409,0.0014433895182901285,-0.20057701027453123,0,0,0,1
0.1812625053373409,-0.007303100231709872,-0.030705602274531226,0,0,0,1
0.1812625053373409,-0.007303100231709872,-0.030705602274531226,0,0,0,1
0.13454963533734088,0.02824430576829013,0.08205158972546878,0,0,0,1
0.07826854533734089,0.09605790576829012,-0.21304485027453124,0,0,0,1
0.10700561533734089,0.008599687068290129,-0.15037651027453122,0,0,0,1
0.10700561533734089,0.008599687068290129,-0.15037651027453122,0,0,0,1
0.1932044253373409,-0.03916276623170987,0.03784127372546878,0,0,0,1
0.19801952533734088,0.07215446576829013,-0.2875030402745312,0,0,0,1
0.07471324533734089,0.04069198976829013,-0.09471367427453123,0,0,0,1
0.1728253553373409,-0.0045695866317098715,-0.20898710027453124,0,0,0,1
0.1728253553373409,-0.0045695866317098715,-0.20898710027453124,0,0,0,1
0.2877812553373409,-0.009897795231709871,-0.21622351027453124,0,0,0,1
0.2877812553373409,-0.009897795231709871,-0.21622351027453124,0,0,0,1
0.054387585337340894,0.04838693576829013,-0.43384218027453125,0,0,0,1
0.15500785533734088,0.02490054376829013,-0.4345032802745312,0,0,0,1
0.1909938053373409,-0.03947840423170987,-0.32797998027453124,0,0,0,1
0.1909938053373409,-0.03947840423170987,-0.32797998027453124,0,0,0,1
0.12640239533734088,-0.03491709823170987,-0.16583245027453122,0,0,0,1
0.16624309533734088,-0.06589500423170987,-0.16245334027453123,0,0,0,1
0.10648776533734089,-0.006885748231709871,-0.3424352102745312,0,0,0,1
0.10648776533734089,-0.006885748231709871,-0.3424352102745312,0,0,0,1
0.1557259753373409,0.05718134576829013,-0.5847633802745311,0,0,0,1
0.1942086353373409,0.053766581768290134,-0.5065344802745312,0,0,0,1
-0.007817729162659106,-0.006900948231709872,-0.24004568027453124,0,0,0,1
-0.007817729162659106,-0.006900948231709872,-0.24004568027453124,0,0,0,1
0.2346301253373409,-0.03277773823170987,-0.31935361027453124,0,0,0,1
0.2346301253373409,-0.03277773823170987,-0.31935361027453124,0,0,0,1
0.2346301253373409,-0.03277773823170987,-0.31935361027453124,0,0,0,1
0.1224761153373409,0.0021617595942901285,-0.42677236027453125,0,0,0,1
0.15767623533734088,-0.004037376831709872,-0.22029877027453124,0,0,0,1
0.07289840533734089,0.04479211876829013,-0.3326842202745312,0,0,0,1
0.16202975533734087,0.05278691976829013,-0.3677461802745312,0,0,0,1
0.16202975533734087,0.05278691976829013,-0.3677461802745312,0,0,0,1
0.2113433053373409,-0.011661600231709871,-0.12969908027453123,0,0,0,1
0.2113433053373409,-0.011661600231709871,-0.12969908027453123,0,0,0,1
0.12535144533734088,-0.012537506231709872,-0.18733990027453123,0,0,0,1
0.1305375253373409,0.07525505576829013,-0.40154851027453126,0,0,0,1
0.17022945533734088,0.03212289876829013,-0.19028479027453124,0,0,0,1
0.14643527533734088,0.0069928501682901285,-0.09153095027453123,0,0,0,1
0.1383710053373409,-0.002361264231709872,-0.30920226027453124,0,0,0,1
0.2295022153373409,-0.028119694231709874,-0.13178813627453123,0,0,0,1
0.2068562653373409,-0.017375004231709873,-0.08240363027453122,0,0,0,1
0.2068562653373409,-0.017375004231709873,-0.08240363027453122,0,0,0,1
0.09680034533734089,0.024315151768290126,-0.23229319027453124,0,0,0,1
0.07308437033734089,-0.05271811423170987,-0.13812962027453124,0,0,0,1
0.11626388533734089,-0.09867877923170987,0.049296764725468775,0,0,0,1
0.1319108153373409,-0.04513278423170987,-0.10817289527453124,0,0,0,1
0.14641143533734088,0.023880246768290127,-0.4318507002745312,0,0,0,1
0.2674451053373409,0.03673740076829013,-0.2673942802745312,0,0,0,1
0.29267552533734087,-0.005975660231709871,-0.09408763027453124,0,0,0,1
0.011477009337340895,0.017563912768290127,-0.32906548027453125,0,0,0,1
0.028334155337340898,0.012032884768290128,-0.22028184027453124,0,0,0,1
0.028334155337340898,0.012032884768290128,-0.22028184027453124,0,0,0,1
0.2058959153373409,0.02432741576829013,-0.36932028027453123,0,0,0,1
0.2058959153373409,0.02432741576829013,-0.36932028027453123,0,0,0,1
0.2058959153373409,0.02432741576829013,-0.36932028027453123,0,0,0,1
0.2058959153373409,0.02432741576829013,-0.36932028027453123,0,0,0,1
0.1473345953373409,-0.007349577231709871,-0.12186587027453123,0,0,0,1
0.06481506033734089,0.05701709176829013,-0.26103588027453123,0,0,0,1
0.1978373653373409,-0.02496589423170987,-0.12972072027453121,0,0,0,1
0.1978373653373409,-0.02496589423170987,-0.12972072027453121,0,0,0,1
0.22669459533734088,0.004330638468290128,-0.32448691027453125,0,0,0,1
0.16935874533734088,-0.004643243231709872,-0.24876854027453124,0,0,0,1
0.1514983353373409,-0.013991784231709872,-0.08735338027453123,0,0,0,1
0.1514983353373409,-0.013991784231709872,-0.08735338027453123,0,0,0,1
0.1216635853373409,0.06278282576829013,-0.3629741802745312,0,0,0,1
0.10741283133734089,0.08771472576829013,-0.30036780027453125,0,0,0,1
0.1529708053373409,0.06107631576829013,-0.03290224227453122,0,0,0,1
0.1410699053373409,0.008356529768290127,-0.15453011027453123,0,0,0,1
0.1410699053373409,0.008356529768290127,-0.15453011027453123,0,0,0,1
0.1940093253373409,-0.04583711423170987,0.030767379725468776,0,0,0,1
0.19646884533734088,0.02755777876829013,-0.18217278027453124,0,0,0,1
0.19646884533734088,0.02755777876829013,-0.18217278027453124,0,0,0,1
0.12833262533734088,0.07884138576829013,-0.4336264802745312,0,0,0,1
0.10087825533734089,0.02108975076829013,-0.18634859027453124,0,0,0,1
0.2579646253373409,0.05625196176829013,-0.14756319027453124,0,0,0,1
0.12499286533734089,0.04007502276829013,-0.2978350502745312,0,0,0,1
0.2579646253373409,0.05625196176829013,-0.14756319027453124,0,0,0,1
0.3669638753373409,0.03508146576829013,-0.045728983274531225,0,0,0,1
0.2844081053373409,0.03961704976829013,-0.26852414027453125,0,0,0,1
0.0749507113373409,0.046919781768290134,-0.05774265727453122,0,0,0,1
0.0749507113373409,0.046919781768290134,-0.05774265727453122,0,0,0,1
0.08822204533734089,0.04683444276829013,-0.27334243027453126,0,0,0,1
0.17692329533734089,0.04809262176829013,-0.3139233802745312,0,0,0,1
0.17692329533734089,0.04809262176829013,-0.3139233802745312,0,0,0,1
0.049007908337340894,0.06246865176829013,-0.24070853027453123,0,0,0,1
0.049007908337340894,0.06246865176829013,-0.24070853027453123,0,0,0,1
0.022631185337340896,0.07151090576829013,-0.09000069027453123,0,0,0,1
0.022631185337340896,0.07151090576829013,-0.09000069027453123,0,0,0,1
0.10292865533734089,0.07977019576829013,-0.3788801402745312,0,0,0,1
0.2708106253373409,-0.04619455023170987,-0.30008894027453126,0,0,0,1
0.12253715533734089,0.01957643376829013,-0.44614405027453125,0,0,0,1
0.12253715533734089,0.01957643376829013,-0.44614405027453125,0,0,0,1
-0.03657768466265911,0.06297922576829013,-0.18749604027453123,0,0,0,1
-0.03657768466265911,0.06297922576829013,-0.18749604027453123,0,0,0,1
-0.050872309662659106,0.018948945768290128,-0.12574539027453122,0,0,0,1
0.11120464033734088,-0.020986181231709873,-0.2887457002745312,0,0,0,1
0.3655495853373409,-0.10580703423170987,-0.47230315027453124,0,0,0,1
0.3655495853373409,-0.10580703423170987,-0.47230315027453124,0,0,0,1
0.2341485253373409,-0.027503591231709874,-0.5363421802745312,0,0,0,1
-0.013400538662659105,0.033050242768290126,-0.28699392027453124,0,0,0,1
-0.09931324466265912,-0.02717303923170987,-0.2734681102745312,0,0,0,1
0.1772561253373409,-0.05021021923170987,-0.39044728027453124,0,0,0,1
0.1772561253373409,-0.05021021923170987,-0.39044728027453124,0,0,0,1
0.3996977953373409,-0.08699710423170987,-0.4406437002745312,0,0,0,1
0.0469250853373409,-0.010728981231709872,-0.3476426802745312,0,0,0,1
-0.024139864662659105,-0.05207630623170987,-0.26463298027453125,0,0,0,1
0.11218406533734089,-0.017823037231709873,-0.5153373802745311,0,0,0,1
0.3582024753373409,-0.05522806423170987,-0.5584820802745312,0,0,0,1
-0.0938610846626591,0.07149949976829013,-0.36849615027453125,0,0,0,1
-0.0938610846626591,0.07149949976829013,-0.36849615027453125,0,0,0,1
0.2237715853373409,0.011421177268290129,-0.6151754802745312,0,0,0,1
0.3288569653373409,0.029917198768290132,-0.5365000802745312,0,0,0,1
0.07705451533734088,0.07499727976829013,-0.5656079802745312,0,0,0,1
0.04553176533734089,0.11411173976829013,-0.3251485502745312,0,0,0,1
0.06678535533734088,0.07324692976829013,-0.5360107802745312,0,0,0,1
0.1647658553373409,0.024832147768290132,-0.5829794802745312,0,0,0,1
0.2172455953373409,0.012590813768290129,-0.4281699402745312,0,0,0,1
0.17278625533734088,-0.00816206323170987,-0.5150322802745312,0,0,0,1
0.0742983953373409,0.010419878768290128,-0.4509400402745312,0,0,0,1
0.0376420183373409,-0.08862648423170987,-0.31273160027453123,0,0,0,1
0.0376420183373409,-0.08862648423170987,-0.31273160027453123,0,0,0,1
0.23595763533734088,-0.11453129023170987,-0.2589742302745312,0,0,0,1
0.23595763533734088,-0.11453129023170987,-0.2589742302745312,0,0,0,1
0.23595763533734088,-0.11453129023170987,-0.2589742302745312,0,0,0,1
0.1702246853373409,-0.05400962823170987,-0.3160948502745312,0,0,0,1
0.3395629053373409,-0.01149998223170987,-0.2918506602745312,0,0,0,1
0.3395629053373409,-0.01149998223170987,-0.2918506602745312,0,0,0,1
0.07013847033734089,0.0021407191582901285,-0.2720464802745312,0,0,0,1
0.07013847033734089,0.0021407191582901285,-0.2720464802745312,0,0,0,1
0.1740107653373409,-0.15304311423170988,-0.2973826202745312,0,0,0,1
0.012877003337340896,-0.05269181423170987,-0.18116448027453122,0,0,0,1
0.0005164307373408941,0.13519983576829012,-0.20838562027453122,0,0,0,1
0.0005164307373408941,0.13519983576829012,-0.20838562027453122,0,0,0,1
0.0005164307373408941,0.13519983576829012,-0.20838562027453122,0,0,0,1
0.07400752533734088,-0.1619588442317099,-0.35774621027453124,0,0,0,1
-0.1277441846626591,-0.1978496442317099,-0.3834049402745312,0,0,0,1
-0.03500030866265911,-0.20321964423170988,-0.19726744027453122,0,0,0,1
-0.03500030866265911,-0.20321964423170988,-0.19726744027453122,0,0,0,1
0.09976722533734089,-0.08816146423170987,-0.3162164402745312,0,0,0,1
0.21816398533734088,0.21776091576829013,-0.3772908202745312,0,0,0,1
0.21816398533734088,0.21776091576829013,-0.3772908202745312,0,0,0,1
0.1097445653373409,0.18484999576829012,-0.23170868027453123,0,0,0,1
-0.041653140662659106,0.1323222257682901,-0.38538060027453125,0,0,0,1
0.007461087337340894,0.1794618857682901,-0.40419701027453125,0,0,0,1
-0.021953089662659103,0.23229153576829012,-0.21061614027453124,0,0,0,1
-0.021953089662659103,0.23229153576829012,-0.21061614027453124,0,0,0,1
-0.023857577662659106,0.24322326576829012,-0.17896143027453124,0,0,0,1
0.1426787553373409,0.2638910857682901,-0.29171278027453124,0,0,0,1
0.2761693253373409,0.1634474257682901,-0.22188810027453124,0,0,0,1
0.3090119553373409,0.033533935768290134,-0.2596224802745312,0,0,0,1
0.06172897033734089,-0.04407566423170987,-0.23129943027453123,0,0,0,1
0.019946591337340894,-0.17178845423170988,-0.03734925527453122,0,0,0,1
0.019946591337340894,-0.17178845423170988,-0.03734925527453122,0,0,0,1
0.019946591337340894,-0.17178845423170988,-0.03734925527453122,0,0,0,1
0.1912255453373409,-0.29062030423170987,0.08906110972546877,0,0,0,1
0.1341300153373409,-0.04083244123170987,-0.13203719427453123,0,0,0,1
0.1341300153373409,-0.04083244123170987,-0.13203719427453123,0,0,0,1
0.0990414753373409,-0.05487470023170987,0.17572768972546876,0,0,0,1
0.5697102753373409,0.0035394762682901286,-0.06598440027453123,0,0,0,1
0.5053010253373409,0.019746515768290125,-0.20424655027453123,0,0,0,1
-0.2136826346626591,0.17283572576829012,-0.027466805274531225,0,0,0,1
-0.019715769662659106,0.23430404576829011,0.06256302972546877,0,0,0,1
-0.019715769662659106,0.23430404576829011,0.06256302972546877,0,0,0,1
0.3804640953373409,-0.06639799423170988,-0.33087042027453123,0,0,0,1
0.3804640953373409,-0.06639799423170988,-0.33087042027453123,0,0,0,1
0.08209087033734089,-0.05020875923170987,-0.06892517327453122,0,0,0,1
0.08209087033734089,-0.05020875923170987,-0.06892517327453122,0,0,0,1
-0.2042155146626591,-0.18402191423170988,-0.22042790027453124,0,0,0,1
-0.025884134662659104,-0.19577195423170987,0.27816333972546875,0,0,0,1
-0.009047968962659105,-0.10827925423170986,-0.4997440802745312,0,0,0,1
0.08785964533734089,-0.03087716923170987,-0.03236392327453123,0,0,0,1
0.08785964533734089,-0.03087716923170987,-0.03236392327453123,0,0,0,1
-0.0953955486626591,-0.11916161423170987,-0.12668648527453122,0,0,0,1
0.1511387953373409,-0.12774267423170987,0.19186862972546878,0,0,0,1
0.16311122533734088,0.017898547768290127,-0.21529928027453124,0,0,0,1
0.16311122533734088,0.017898547768290127,-0.21529928027453124,0,0,0,1
0.2158055453373409,0.29189174576829013,-0.29406491027453124,0,0,0,1
0.2839865853373409,0.45020045576829015,-0.08489373527453123,0,0,0,1
0.17844630533734088,0.24562506576829013,-0.13196352027453123,0,0,0,1
0.3047518853373409,0.06064200576829013,0.23715915972546878,0,0,0,1
0.3047518853373409,0.06064200576829013,0.23715915972546878,0,0,0,1
0.34422160533734086,0.05067299576829013,-0.36186878027453123,0,0,0,1
0.3153624653373409,-0.3432634842317099,-0.16336694027453122,0,0,0,1
0.4229626853373409,-0.30153564423170987,0.17153259972546878,0,0,0,1
0.4383216053373409,0.022546965768290128,0.20536407972546877,0,0,0,1
0.4383216053373409,0.022546965768290128,0.20536407972546877,0,0,0,1
0.1353268753373409,0.3414290757682901,-0.2936866602745312,0,0,0,1
0.4115452953373409,-0.05906632223170987,0.036086529725468774,0,0,0,1
0.4115452953373409,-0.05906632223170987,0.036086529725468774,0,0,0,1
0.07017184933734089,0.03165176876829013,-0.18934837027453122,0,0,0,1
-0.2700466946626591,0.1332054357682901,-0.3924697802745312,0,0,0,1
0.09536697133734089,0.02839042576829013,-0.14555374027453122,0,0,0,1
0.47392799533734087,-0.1280355142317099,-0.04032972627453122,0,0,0,1
0.47392799533734087,-0.1280355142317099,-0.04032972627453122,0,0,0,1
0.4524178653373409,-0.26960466423170987,-0.19578102027453123,0,0,0,1
0.0943484453373409,-0.3963477442317099,-0.14920464027453123,0,0,0,1
-0.08191440866265912,-0.27130008423170987,0.34957148972546875,0,0,0,1
-0.31796882466265913,-0.05528826623170987,0.018125979725468772,0,0,0,1
-0.2651514746626591,0.31703816576829014,-0.21274677027453123,0,0,0,1
0.23083068533734089,0.6046773157682901,-0.13500718027453124,0,0,0,1
0.23083068533734089,0.6046773157682901,-0.13500718027453124,0,0,0,1
0.6788239653373409,0.17793217576829012,-0.45591131027453125,0,0,0,1
0.6788239653373409,0.17793217576829012,-0.45591131027453125,0,0,0,1
0.017795102337340895,0.1671468657682901,-0.07977965627453124,0,0,0,1
0.017795102337340895,0.1671468657682901,-0.07977965627453124,0,0,0,1
-0.3762965046626591,0.1517710157682901,0.13545646972546876,0,0,0,1
0.09676219533734089,-0.15524588423170987,-0.30786541027453124,0,0,0,1
0.09676219533734089,-0.15524588423170987,-0.30786541027453124,0,0,0,1
0.8807759253373408,-0.3568621142317099,-0.17438284027453124,0,0,0,1
0.4356599053373409,-0.06660899423170986,0.02730068372546877,0,0,0,1
-0.3092055146626591,-0.04202253723170987,-0.21184543027453123,0,0,0,1
-0.6663965746626591,-0.32479350423170983,-0.06612757027453123,0,0,0,1
-0.6663965746626591,-0.32479350423170983,-0.06612757027453123,0,0,0,1
0.3679280453373409,-0.48938052423170986,0.2728570997254688,0,0,0,1
0.3679280453373409,-0.48938052423170986,0.2728570997254688,0,0,0,1
0.6618628653373408,-0.21376120423170988,-0.22375789027453122,0,0,0,1
0.0874505203373409,0.5969946557682901,-0.7456805802745312,0,0,0,1
-0.026063425662659106,0.6530818557682901,-0.3611604302745312,0,0,0,1
-0.21077297466265912,-0.21540753423170989,-0.43772628027453125,0,0,0,1
-0.21077297466265912,-0.21540753423170989,-0.43772628027453125,0,0,0,1
0.4925751853373409,-0.12392225423170987,-0.09481600027453123,0,0,0,1
0.4925751853373409,-0.12392225423170987,-0.09481600027453123,0,0,0,1
-0.10510490466265911,-0.09094996423170987,-0.4592081602745312,0,0,0,1
-0.10510490466265911,-0.09094996423170987,-0.4592081602745312,0,0,0,1
0.2053685353373409,-0.1913824942317099,0.06484850972546877,0,0,0,1
0.2053685353373409,-0.1913824942317099,0.06484850972546877,0,0,0,1
0.4106574253373409,-0.004112791531709872,-0.6401468802745311,0,0,0,1
0.6744952253373409,0.41669388576829014,-0.43592826027453124,0,0,0,1
0.4756827553373409,0.5199619757682902,-0.15243748027453122,0,0,0,1
-0.32305477466265914,0.1819811457682901,0.21541782972546877,0,0,0,1
-0.32305477466265914,0.1819811457682901,0.21541782972546877,0,0,0,1
-0.1544499246626591,0.11849594576829013,0.8101467797254688,0,0,0,1
-0.0800938446626591,-0.05849347623170987,-0.19424203027453124,0,0,0,1
0.5752444253373409,-0.01971952323170987,-0.011320503074531226,0,0,0,1
0.5752444253373409,-0.01971952323170987,-0.011320503074531226,0,0,0,1
0.3775515753373409,0.06998472576829012,-0.04396716027453122,0,0,0,1
0.3775515753373409,0.06998472576829012,-0.04396716027453122,0,0,0,1
-0.10541675866265911,-0.1529960642317099,0.10838779972546878,0,0,0,1
-0.10541675866265911,-0.1529960642317099,0.10838779972546878,0,0,0,1
-0.2315087146626591,-0.01872729923170987,0.4019253497254688,0,0,0,1
-0.3672394546626591,0.4224607557682901,0.08570190972546878,0,0,0,1
-0.3672394546626591,0.4224607557682901,0.08570190972546878,0,0,0,1
0.9327712253373409,0.43843548576829017,-0.7804607502745312,0,0,0,1
0.9327712253373409,0.43843548576829017,-0.7804607502745312,0,0,0,1
0.6158747853373409,-0.004854243531709872,-0.03350773627453123,0,0,0,1
0.6158747853373409,-0.004854243531709872,-0.03350773627453123,0,0,0,1
-0.00021313016265910555,-0.36813841423170984,0.3683013597254688,0,0,0,1
-0.6536059246626591,-0.2271695542317099,0.21964570972546876,0,0,0,1
-0.3636269446626591,-0.24746037423170988,-0.16969207027453123,0,0,0,1
0.3334803753373409,-0.18422737423170987,0.07990583972546877,0,0,0,1
0.3334803753373409,-0.18422737423170987,0.07990583972546877,0,0,0,1
0.5215525753373409,-0.16337338423170988,-0.09999838627453123,0,0,0,1
0.2228264953373409,-0.37483238423170984,0.14319899972546876,0,0,0,1
0.2228264953373409,-0.37483238423170984,0.14319899972546876,0,0,0,1
-0.3441109446626591,-0.16371561423170988,-0.30293730027453125,0,0,0,1
-0.3441109446626591,-0.16371561423170988,-0.30293730027453125,0,0,0,1
0.4809556253373409,0.07947735076829013,-0.34207693027453123,0,0,0,1
0.5969672253373409,-0.45626972423170986,-0.2816800202745312,0,0,0,1
-0.19878910466265912,-0.4469839842317099,0.3003857397254688,0,0,0,1
-0.19878910466265912,-0.4469839842317099,0.3003857397254688,0,0,0,1
-0.8583330746626591,-0.19655844423170987,0.9278664197254688,0,0,0,1
0.8625159253373409,0.26069404576829014,-0.40129068027453124,0,0,0,1
1.225656025337341,0.1972187757682901,-0.4443968802745312,0,0,0,1
1.225656025337341,0.1972187757682901,-0.4443968802745312,0,0,0,1
1.225656025337341,0.1972187757682901,-0.4443968802745312,0,0,0,1
-0.5901074246626591,0.4055552157682901,0.17362567972546877,0,0,0,1
-0.5901074246626591,0.4055552157682901,0.17362567972546877,0,0,0,1
0.5676694253373409,-0.5300217842317099,0.4248537697254688,0,0,0,1
0.5676694253373409,-0.5300217842317099,0.4248537697254688,0,0,0,1
0.9331660253373409,-0.5659312842317099,-0.2608523802745312,0,0,0,1
0.4089389053373409,0.26088751576829017,-0.2897365402745312,0,0,0,1
0.4089389053373409,0.26088751576829017,-0.2897365402745312,0,0,0,1
-0.3889775146626591,0.5146708657682901,0.020036785725468773,0,0,0,1
0.1544289753373409,0.35869851576829015,-0.08573595027453124,0,0,0,1
0.4911103453373409,0.19492188576829012,-0.14503458027453123,0,0,0,1
0.23382617533734087,0.2469858457682901,-0.38833538027453124,0,0,0,1
-0.3662905546626591,0.09952411576829014,-0.1289099802745312,0,0,0,1
-0.33017587466265913,-0.07588974423170987,0.14941181972546877,0,0,0,1
-0.33017587466265913,-0.07588974423170987,0.14941181972546877,0,0,0,1
0.1119771153373409,-0.04100225423170987,0.21271094972546878,0,0,0,1
1.057855125337341,-0.34022281423170986,-0.6980495802745311,0,0,0,1
0.7887864253373409,-0.4019158842317099,-0.5294412802745312,0,0,0,1
0.7887864253373409,-0.4019158842317099,-0.5294412802745312,0,0,0,1
-0.6817307346626591,-0.01811735023170987,-0.33596924027453123,0,0,0,1
-0.8103451746626591,-0.27330648423170983,-0.28400698027453125,0,0,0,1
-0.8103451746626591,-0.27330648423170983,-0.28400698027453125,0,0,0,1
-0.36051224466265913,-0.43481515423170986,0.18070777972546878,0,0,0,1
1.001582625337341,-0.25514714423170987,-0.8452093802745312,0,0,0,1
1.001582625337341,-0.25514714423170987,-0.8452093802745312,0,0,0,1
0.6683287753373409,0.25608305576829016,-0.5161662402745312,0,0,0,1
-0.1932377646626591,0.08858070076829012,-0.6807184802745312,0,0,0,1
-0.4601168446626591,-0.24489636423170988,-0.06844869427453122,0,0,0,1
-0.4302630246626591,-0.8377117842317099,-0.6445564302745311,0,0,0,1
-0.4302630246626591,-0.8377117842317099,-0.6445564302745311,0,0,0,1
-0.4302630246626591,-0.8377117842317099,-0.6445564302745311,0,0,0,1
0.25531150533734087,-0.7617735842317098,-0.8178554802745311,0,0,0,1
0.7318101253373409,-0.5828485342317099,-0.5731260802745312,0,0,0,1
0.6970496253373409,-0.26134742423170987,-0.7864392102745311,0,0,0,1
0.48982192533734087,-0.04620010823170987,-0.8488140402745312,0,0,0,1
0.12318469533734089,-0.1410990142317099,-0.7523937802745312,0,0,0,1
-0.6446823746626591,-0.30570326423170985,-0.44857268027453123,0,0,0,1
-0.5385947046626591,-0.07429136023170987,-0.31175891027453123,0,0,0,1
-0.5385947046626591,-0.07429136023170987,-0.31175891027453123,0,0,0,1
0.0524335053373409,0.32001073576829014,-0.29689101027453124,0,0,0,1
0.0524335053373409,0.32001073576829014,-0.29689101027453124,0,0,0,1
0.3804211753373409,0.34009841576829014,-0.9448230802745312,0,0,0,1
0.6744256253373409,0.32070571576829016,-1.376095080274531,0,0,0,1
0.7336726253373409,0.09483363076829013,-1.066078080274531,0,0,0,1
0.40749980533734087,-0.2306041842317099,-0.3111895602745312,0,0,0,1
-0.3976511746626591,-0.38499341423170985,-0.49266902027453124,0,0,0,1
-0.4797224746626591,0.06229855576829013,-0.19177702027453122,0,0,0,1
0.18267680533734088,0.1874882157682901,-0.48411575027453124,0,0,0,1
0.7014031553373409,-0.04065532623170987,-0.20133522027453124,0,0,0,1
0.7014031553373409,-0.04065532623170987,-0.20133522027453124,0,0,0,1
0.49002124533734087,-0.4474185842317099,-0.8275252802745312,0,0,0,1
0.2976441553373409,0.5933770157682902,-0.15398601027453124,0,0,0,1
0.2976441553373409,0.5933770157682902,-0.15398601027453124,0,0,0,1
0.2371211253373409,0.6084977557682901,-0.6937434802745311,0,0,0,1
0.7776904253373409,0.04926164776829013,0.07428976972546877,0,0,0,1
0.7776904253373409,0.04926164776829013,0.07428976972546877,0,0,0,1
0.3895726253373409,0.12867598576829012,-0.6928649302745312,0,0,0,1
0.4712929853373409,0.34794531576829013,-0.09115270027453123,0,0,0,1
0.1998458053373409,-0.11111946423170987,0.040081827725468776,0,0,0,1
0.1998458053373409,-0.11111946423170987,0.040081827725468776,0,0,0,1
0.1998458053373409,-0.11111946423170987,0.040081827725468776,0,0,0,1
0.2585063253373409,-0.3629452442317099,0.22694810972546878,0,0,0,1
0.39183284533734086,0.16198730576829012,-0.45942786027453125,0,0,0,1
0.3989434353373409,0.41648988576829016,-1.0055273802745313,0,0,0,1
0.6715674553373409,0.5978550457682902,-0.18569735027453124,0,0,0,1
0.6715674553373409,0.5978550457682902,-0.18569735027453124,0,0,0,1
-0.041347010662659105,0.2888139357682901,-0.6924153802745312,0,0,0,1
-0.23418854466265912,0.031240838768290126,0.2621276197254688,0,0,0,1
-0.6655001746626591,-0.5496648342317099,-1.894608080274531,0,0,0,1
-0.017590029662659105,-0.2281994642317099,-1.520627280274531,0,0,0,1
-0.017590029662659105,-0.2281994642317099,-1.520627280274531,0,0,0,1
-0.4701933746626591,0.34098367576829014,-0.9279104802745312,0,0,0,1
-0.4701933746626591,0.34098367576829014,-0.9279104802745312,0,0,0,1
-0.09850548066265911,0.5329401157682901,2.3572568197254684,0,0,0,1
0.3005042253373409,-0.6760551842317098,1.1690314197254688,0,0,0,1
0.3005042253373409,-0.6760551842317098,1.1690314197254688,0,0,0,1
0.6601548253373409,-1.43161178423171,-1.4173878802745312,0,0,0,1
1.124346225337341,-1.44815458423171,-2.5341656802745316,0,0,0,1
0.8345256253373409,-0.8842668842317098,-2.1894409802745316,0,0,0,1
-2.5335235746626594,1.36107151576829,1.214801919725469,0,0,0,1
-3.790719474662659,1.78269671576829,0.8172322797254689,0,0,0,1
-2.4510116746626593,1.40556171576829,-0.08284786527453122,0,0,0,1
-2.4510116746626593,1.40556171576829,-0.08284786527453122,0,0,0,1
3.972948525337341,-0.9198236242317098,-0.5394968102745312,0,0,0,1
2.8195177253373407,-1.10192018423171,-1.1927853802745312,0,0,0,1
0.1383462153373409,-0.5772569842317099,-0.9348230802745312,0,0,0,1
-3.017106474662659,0.10459252076829013,-0.6060042802745311,0,0,0,1
-4.4210295746626596,0.5144484157682901,0.7487339197254689,0,0,0,1
-3.186265474662659,0.17341761576829012,2.5733306197254686,0,0,0,1
2.048488125337341,-0.4231960242317099,-0.03455642027453122,0,0,0,1
2.048488125337341,-0.4231960242317099,-0.03455642027453122,0,0,0,1
4.6508887253373405,-0.21896578423170987,-1.1517590802745312,0,0,0,1
4.764300725337341,0.09946596976829013,-2.4412658802745315,0,0,0,1
3.1115260253373407,0.5569101757682902,-1.8875551802745312,0,0,0,1
0.7800955953373409,0.6836955757682901,0.32389458972546875,0,0,0,1
-2.4206790746626594,0.5327273157682901,1.236447819725469,0,0,0,1
-3.397955374662659,0.5967672657682901,1.8746008197254689,0,0,0,1
2.4841924253373406,-0.1534625142317099,-0.9313843802745312,0,0,0,1
4.501768725337341,-0.14616153423170988,-1.6883430802745312,0,0,0,1
4.501768725337341,-0.14616153423170988,-1.6883430802745312,0,0,0,1
4.404226725337341,-0.03938136623170987,-1.7327309802745312,0,0,0,1
-0.21690414466265912,0.12418714576829012,-0.03910687727453122,0,0,0,1
-2.835412474662659,0.03947004976829013,1.085549419725469,0,0,0,1
-2.835412474662659,0.03947004976829013,1.085549419725469,0,0,0,1
-2.534668874662659,0.20956035576829013,1.643275119725469,0,0,0,1
0.15552856533734088,0.2426516157682901,0.14378055972546877,0,0,0,1
3.2755046253373408,0.5459439157682902,-1.6725147802745313,0,0,0,1
3.2755046253373408,0.5459439157682902,-1.6725147802745313,0,0,0,1
-1.273923374662659,-0.3408657842317099,1.167584619725469,0,0,0,1
-1.273923374662659,-0.3408657842317099,1.167584619725469,0,0,0,1
-0.6427082746626591,0.27379025576829014,0.7536240197254688,0,0,0,1
1.736382025337341,0.1327840157682901,-1.4157741802745312,0,0,0,1
2.964712725337341,-0.10191557923170987,-1.0945291802745312,0,0,0,1
-2.239988274662659,0.2387701057682901,1.6134533197254688,0,0,0,1
-2.239988274662659,0.2387701057682901,1.6134533197254688,0,0,0,1
-2.388252674662659,0.6493245557682902,1.4226139197254688,0,0,0,1
1.235408325337341,-0.07288063423170987,-0.7878519802745312,0,0,0,1
1.235408325337341,-0.07288063423170987,-0.7878519802745312,0,0,0,1
1.968430025337341,-1.05337518423171,-1.0725889802745312,0,0,0,1
0.9265151253373409,-0.5291230542317099,0.26718946972546875,0,0,0,1
-1.160276874662659,0.30530681576829016,0.05877181972546878,0,0,0,1
-1.160276874662659,0.30530681576829016,0.05877181972546878,0,0,0,1
-2.4222412746626594,0.6687829657682901,-0.2777076102745312,0,0,0,1
-0.4985976046626591,-0.7704066842317099,0.44120881972546877,0,0,0,1
-0.4985976046626591,-0.7704066842317099,0.44120881972546877,0,0,0,1
0.8404793853373409,-0.8014994842317098,-0.08380190027453123,0,0,0,1
2.013455925337341,-0.5903637242317099,-0.08145145027453123,0,0,0,1
1.499522725337341,0.7075063757682901,-0.8200391802745312,0,0,0,1
-0.9227070746626591,0.48131834576829013,-0.23039058027453124,0,0,0,1
-0.9227070746626591,0.48131834576829013,-0.23039058027453124,0,0,0,1
-1.195911874662659,0.12093398576829013,-0.4637259602745312,0,0,0,1
-1.195911874662659,0.12093398576829013,-0.4637259602745312,0,0,0,1
0.8634352853373409,-0.31024591423170983,-0.08930162027453123,0,0,0,1
0.8634352853373409,-0.31024591423170983,-0.08930162027453123,0,0,0,1
2.0062365253373406,0.01833315576829013,0.7426992197254688,0,0,0,1
2.0062365253373406,0.01833315576829013,0.7426992197254688,0,0,0,1
1.706745625337341,0.13379991576829012,-0.5574655802745312,0,0,0,1
0.1781287353373409,0.5431905557682901,0.2894136597254688,0,0,0,1
-1.368525974662659,-0.7232465842317098,0.2981049697254688,0,0,0,1
-0.37033127466265914,-0.05891753423170987,-1.7847365802745312,0,0,0,1
1.942826725337341,0.8916766857682902,0.25393613972546875,0,0,0,1
1.942826725337341,0.8916766857682902,0.25393613972546875,0,0,0,1
-0.5859703746626591,0.2447269757682901,1.138949619725469,0,0,0,1
-3.4446224746626593,-1.42620748423171,-2.9377296802745314,0,0,0,1
-3.4446224746626593,-1.42620748423171,-2.9377296802745314,0,0,0,1
-0.8822731746626591,-0.8324849442317098,-0.4285983202745312,0,0,0,1
2.9576211253373406,0.5307776557682902,3.8482573197254686,0,0,0,1
-1.458746374662659,0.8410307157682901,-4.514902680274531,0,0,0,1
0.37678767533734087,1.69221041576829,1.8686228197254688,0,0,0,1
0.37678767533734087,1.69221041576829,1.8686228197254688,0,0,0,1
0.1425700353373409,0.5853094657682901,2.5731683197254687,0,0,0,1
0.4495654253373409,-1.86597468423171,-0.06053260027453122,0,0,0,1
0.4495654253373409,-1.86597468423171,-0.06053260027453122,0,0,0,1
2.176256725337341,-0.9987840842317098,2.0275678197254687,0,0,0,1
2.176256725337341,-0.9987840842317098,2.0275678197254687,0,0,0,1
0.3215756553373409,-0.47348092423170984,-2.541508980274531,0,0,0,1
-0.8130764746626591,0.8339861157682902,1.8558493197254688,0,0,0,1
-0.8130764746626591,0.8339861157682902,1.8558493197254688,0,0,0,1
-2.043716874662659,0.5162978157682901,-1.0919868802745312,0,0,0,1
-2.043716874662659,0.5162978157682901,-1.0919868802745312,0,0,0,1
0.7624983953373409,0.5259418657682902,-0.9133563402745312,0,0,0,1
-0.04684780466265911,0.48340536576829013,-0.8971600802745312,0,0,0,1
-0.04684780466265911,0.48340536576829013,-0.8971600802745312,0,0,0,1
-0.04684780466265911,0.48340536576829013,-0.8971600802745312,0,0,0,1
-0.6463570446626591,0.27177249576829016,1.2525129197254687,0,0,0,1
-1.636907074662659,-0.42207546423170983,-0.03463652927453122,0,0,0,1
-0.9103445746626591,-0.10485835023170988,0.3521059397254688,0,0,0,1
1.787290125337341,0.8990284157682902,0.13985201972546876,0,0,0,1
-0.7898802746626591,-1.27603048423171,-0.027656110274531225,0,0,0,1
0.24725200533734087,-0.8536510242317099,0.16501637972546876,0,0,0,1
0.24725200533734087,-0.8536510242317099,0.16501637972546876,0,0,0,1
1.349039525337341,0.24328844576829012,0.21591004972546876,0,0,0,1
-0.11314056466265911,0.24042985576829012,-0.23337689027453123,0,0,0,1
0.25272609533734086,-0.7127806842317098,-0.06451431027453122,0,0,0,1
0.25272609533734086,-0.7127806842317098,-0.06451431027453122,0,0,0,1
0.25272609533734086,-0.7127806842317098,-0.06451431027453122,0,0,0,1
0.9764666753373409,-1.22444368423171,1.317799319725469,0,0,0,1
0.4590382753373409,1.05498531576829,0.9074696197254688,0,0,0,1
0.4590382753373409,1.05498531576829,0.9074696197254688,0,0,0,1
0.10047103533734089,0.4083776157682901,0.22391029972546878,0,0,0,1
0.1996207353373409,-0.05504336623170987,-0.16941384027453124,0,0,0,1
0.7333522253373409,-0.09241446423170988,-0.4553082302745312,0,0,0,1
-0.4867253146626591,-0.011707779231709872,0.03706678572546878,0,0,0,1
-1.306627774662659,-0.5942191842317098,-0.19168523027453124,0,0,0,1
-1.306627774662659,-0.5942191842317098,-0.19168523027453124,0,0,0,1
-0.5719218046626591,-0.26094848423170985,1.1408453197254689,0,0,0,1
0.20773173533734088,0.1697938757682901,1.312509319725469,0,0,0,1
1.388891725337341,-0.11337364823170987,-0.24684361027453122,0,0,0,1
1.413485025337341,-0.7075275842317098,-1.6093881802745311,0,0,0,1
-0.08219192466265911,-0.44106335423170984,0.12962230972546876,0,0,0,1
-0.08219192466265911,-0.44106335423170984,0.12962230972546876,0,0,0,1
-0.08219192466265911,-0.44106335423170984,0.12962230972546876,0,0,0,1
-1.359061674662659,1.16011541576829,-0.7157733802745312,0,0,0,1
1.966769725337341,-0.8585046342317099,-0.7700890802745312,0,0,0,1
-0.09166096066265911,-0.9626915842317099,-1.2323570802745312,0,0,0,1
-0.09166096066265911,-0.9626915842317099,-1.2323570802745312,0,0,0,1
-1.663611874662659,0.6605146157682902,0.5029669697254688,0,0,0,1
1.524016825337341,1.17727881576829,-1.8296049802745311,0,0,0,1
2.661734125337341,1.29990491576829,-0.23211435027453123,0,0,0,1
1.899693025337341,0.30697971576829014,-0.06495741027453122,0,0,0,1
1.899693025337341,0.30697971576829014,-0.06495741027453122,0,0,0,1
-0.7563795746626591,-1.4637746842317099,0.4754483397254688,0,0,0,1
-1.034203974662659,0.06515656576829013,0.27169091972546877,0,0,0,1
-0.2606501446626591,1.01589231576829,0.10396536972546877,0,0,0,1
1.352880925337341,0.46508468576829015,-0.48712841027453124,0,0,0,1
1.352880925337341,0.46508468576829015,-0.48712841027453124,0,0,0,1
1.813689725337341,-0.29724494423170983,0.3635280997254688,0,0,0,1
1.170198025337341,-0.7248150842317098,-0.7727872402745312,0,0,0,1
1.170198025337341,-0.7248150842317098,-0.7727872402745312,0,0,0,1
0.37254572533734087,-0.45788301423170985,-0.48048452027453126,0,0,0,1
-0.1612057546626591,0.27186574576829015,1.158409519725469,0,0,0,1
-0.1612057546626591,0.27186574576829015,1.158409519725469,0,0,0,1
-1.721678674662659,0.4320349157682901,0.7465963597254688,0,0,0,1
-2.8431486746626593,0.7896557157682902,-2.0383682802745313,0,0,0,1
1.092690925337341,1.08647381576829,0.3209837397254688,0,0,0,1
1.345466125337341,-1.17870808423171,-0.21745923027453123,0,0,0,1
1.345466125337341,-1.17870808423171,-0.21745923027453123,0,0,0,1
2.0584721253373406,-3.20671078423171,0.41411671972546876,0,0,0,1
2.0584721253373406,-3.20671078423171,0.41411671972546876,0,0,0,1
1.163344925337341,-2.00528608423171,-0.41954771027453125,0,0,0,1
-2.4858822746626594,2.2781410157682904,0.08206793472546876,0,0,0,1
-2.4858822746626594,2.2781410157682904,0.08206793472546876,0,0,0,1
0.3741698453373409,-2.19207188423171,0.22770270972546877,0,0,0,1
0.3741698453373409,-2.19207188423171,0.22770270972546877,0,0,0,1
3.1045585253373407,-2.39879348423171,1.7470641197254688,0,0,0,1
4.054369425337341,-1.52596468423171,0.7510159197254688,0,0,0,1
0.5528388253373409,1.2937400157682901,-1.5170903802745312,0,0,0,1
-1.727588174662659,1.92710521576829,-1.287862480274531,0,0,0,1
-1.727588174662659,1.92710521576829,-1.287862480274531,0,0,0,1
-1.991228574662659,0.48668921576829016,1.8814841197254688,0,0,0,1
-1.991228574662659,0.48668921576829016,1.8814841197254688,0,0,0,1
-1.991228574662659,0.48668921576829016,1.8814841197254688,0,0,0,1
4.23425822533734,0.16779889576829013,0.9956839197254688,0,0,0,1
3.370683225337341,0.32427774576829016,-1.7992316802745312,0,0,0,1
2.472605225337341,0.8869390657682902,-1.8226604802745312,0,0,0,1
2.472605225337341,0.8869390657682902,-1.8226604802745312,0,0,0,1
-2.719160974662659,0.008787918768290128,-2.2467356802745315,0,0,0,1
-4.093423874662659,0.1527170757682901,-0.24869076027453124,0,0,0,1
-3.1242208746626594,0.5274268557682902,4.104513319725468,0,0,0,1
-3.1242208746626594,0.5274268557682902,4.104513319725468,0,0,0,1
-3.1242208746626594,0.5274268557682902,4.104513319725468,0,0,0,1
-3.1415062746626594,-0.16295192423170987,1.6160609197254687,0,0,0,1
4.0373577253373405,1.24139611576829,0.15769346972546877,0,0,0,1
0.6735577753373408,1.16449051576829,0.8909544597254688,0,0,0,1
0.6735577753373408,1.16449051576829,0.8909544597254688,0,0,0,1
-4.506529774662659,-0.9076743842317099,-0.4379016502745312,0,0,0,1
-3.3162212746626594,-0.42255972423170984,2.6182373197254685,0,0,0,1
-3.3162212746626594,-0.42255972423170984,2.6182373197254685,0,0,0,1
0.8172860253373408,0.8532837857682901,-3.0608551802745314,0,0,0,1
0.8172860253373408,0.8532837857682901,-3.0608551802745314,0,0,0,1
3.774303025337341,-0.013910841231709872,0.7254887197254688,0,0,0,1
3.774303025337341,-0.013910841231709872,0.7254887197254688,0,0,0,1
-1.703103074662659,-1.04810078423171,-0.5101934802745312,0,0,0,1
-2.7711510746626593,0.05418187576829013,1.9963263197254688,0,0,0,1
-2.957828474662659,0.7217859857682901,2.8514606197254686,0,0,0,1
-2.957828474662659,0.7217859857682901,2.8514606197254686,0,0,0,1
0.8780703753373409,-0.4666119342317099,-1.7116502802745313,0,0,0,1
3.2180543253373406,-0.3005437342317099,-0.46913388027453123,0,0,0,1
2.539174525337341,-0.43151755423170984,-1.0168670802745312,0,0,0,1
1.086484425337341,-0.2945155642317099,-1.814161380274531,0,0,0,1
-1.131256574662659,2.5717962157682903,3.0241157197254687,0,0,0,1
0.9716143753373409,1.20612051576829,2.0864899197254685,0,0,0,1
-3.9908694746626594,1.72406971576829,-2.3140971802745316,0,0,0,1
1.241930525337341,-0.9041520142317099,2.5000613197254684,0,0,0,1
1.777672325337341,-1.84689008423171,-0.6420489802745312,0,0,0,1
1.777672325337341,-1.84689008423171,-0.6420489802745312,0,0,0,1
3.640617825337341,-1.47546078423171,-0.8172042802745312,0,0,0,1
-0.3036894746626591,0.48792137576829014,-3.2556769802745316,0,0,0,1
-2.233592474662659,0.9514080457682902,-0.09231940027453123,0,0,0,1
-2.3581647746626593,0.4929462157682901,4.600782319725469,0,0,0,1
-3.383096674662659,-0.8112022842317098,1.9542489197254689,0,0,0,1
-1.354403974662659,-0.5854388242317099,-1.1461687802745313,0,0,0,1
3.3022876253373408,0.6467181657682901,-0.6759768802745312,0,0,0,1
3.3022876253373408,0.6467181657682901,-0.6759768802745312,0,0,0,1
2.0046754253373407,-0.31277455423170986,-3.822856680274531,0,0,0,1
0.00044204433734089475,-0.2793109542317099,4.224986719725469,0,0,0,1
0.00044204433734089475,-0.2793109542317099,4.224986719725469,0,0,0,1
0.6634507253373408,1.2825596157682901,0.13655181972546876,0,0,0,1
0.6634507253373408,1.2825596157682901,0.13655181972546876,0,0,0,1
1.669565725337341,1.30649221576829,0.39088961972546876,0,0,0,1
2.682846525337341,0.6589446157682901,-0.49746968027453126,0,0,0,1
1.826136125337341,-0.05352447423170987,1.0502373197254689,0,0,0,1
-2.255717774662659,-1.13843458423171,-0.20993641027453122,0,0,0,1
-3.237514974662659,-0.7129972842317098,1.792401319725469,0,0,0,1
-2.364204874662659,-0.016662758231709873,3.229543319725469,0,0,0,1
1.896976925337341,0.6019020157682902,-3.845872480274531,0,0,0,1
3.488836725337341,0.32113741576829014,-3.3604186802745315,0,0,0,1
3.488836725337341,0.32113741576829014,-3.3604186802745315,0,0,0,1
3.724854025337341,0.05573349076829013,0.8818850197254688,0,0,0,1
3.724854025337341,0.05573349076829013,0.8818850197254688,0,0,0,1
-2.4170646746626594,0.9034509857682902,0.8871943597254688,0,0,0,1
-0.4219918046626591,0.8050508157682902,0.2595510197254688,0,0,0,1
0.8527322253373409,-0.14773536423170988,-0.6687228802745312,0,0,0,1
2.4775472253373407,-1.18638428423171,1.7493219197254688,0,0,0,1
0.8120532253373409,-0.6819553142317099,-0.036469014274531225,0,0,0,1
0.8120532253373409,-0.6819553142317099,-0.036469014274531225,0,0,0,1
-1.215372574662659,0.12484473576829012,-2.1184780802745315,0,0,0,1
-0.5986447146626591,0.9688581157682902,2.8339631197254684,0,0,0,1
-0.7847313746626591,0.016756105768290126,-0.33954242027453124,0,0,0,1
0.8658604753373409,-0.02555977923170987,-1.283383280274531,0,0,0,1
0.8658604753373409,-0.02555977923170987,-1.283383280274531,0,0,0,1
-0.6898827346626591,0.6325902557682902,3.1516087197254685,0,0,0,1
-0.5966553746626592,-0.06010472423170987,-0.8367169202745312,0,0,0,1
2.165389525337341,0.6376571857682901,-0.9204851802745312,0,0,0,1
2.6143212253373407,0.9752966157682902,-0.7468068802745311,0,0,0,1
2.6143212253373407,0.9752966157682902,-0.7468068802745311,0,0,0,1
0.8230233253373409,0.10460975576829012,0.45620931972546874,0,0,0,1
0.8230233253373409,0.10460975576829012,0.45620931972546874,0,0,0,1
-0.7958569346626592,-0.15641787423170989,0.6462859197254688,0,0,0,1
-0.7958569346626592,-0.15641787423170989,0.6462859197254688,0,0,0,1
0.5796885653373409,0.19736781576829013,0.49742808972546876,0,0,0,1
0.5796885653373409,0.19736781576829013,0.49742808972546876,0,0,0,1
0.22803928533734089,-0.1556734542317099,0.7155885197254688,0,0,0,1
0.3624892253373409,-0.5393834542317099,3.6305479197254686,0,0,0,1
-1.035168174662659,-0.5564567242317099,0.47137881972546875,0,0,0,1
-0.4279198446626591,0.31195895576829014,-2.3310778802745316,0,0,0,1
1.977247725337341,1.17236441576829,0.2690740497254688,0,0,0,1
-1.212431374662659,-0.09899997423170986,-1.6989421802745313,0,0,0,1
-1.212431374662659,-0.09899997423170986,-1.6989421802745313,0,0,0,1
0.7755112853373409,-0.03309251023170987,1.6375737197254687,0,0,0,1
0.0705752553373409,0.0024163161282901285,-0.20059165027453124,0,0,0,1
0.6263175253373409,-0.01861740323170987,-0.013992996574531225,0,0,0,1
0.3165373953373409,-0.35206668423170984,0.06595268972546878,0,0,0,1
-0.8243450746626592,0.38321451576829013,0.22335215972546876,0,0,0,1
-0.18439148466265912,0.5712718557682901,0.11976202972546876,0,0,0,1
-0.18439148466265912,0.5712718557682901,0.11976202972546876,0,0,0,1
0.7479357853373408,0.35300757576829017,0.44919156972546875,0,0,0,1
0.7479357853373408,0.35300757576829017,0.44919156972546875,0,0,0,1
0.8584866653373409,-0.7987770842317099,0.03625544772546878,0,0,0,1
0.3274035653373409,-0.1686475242317099,-0.3076590602745312,0,0,0,1
-0.9785742746626591,0.5684919157682902,-0.3067911002745312,0,0,0,1
-0.9785742746626591,0.5684919157682902,-0.3067911002745312,0,0,0,1
0.022018925337340896,0.26739441576829015,1.5949895197254689,0,0,0,1
0.7065768253373409,-0.5476404242317099,-0.7977357202745312,0,0,0,1
1.520661825337341,0.25276179576829017,-0.05157539427453122,0,0,0,1
-1.322109674662659,0.2199902857682901,-0.34722951027453125,0,0,0,1
-1.322109674662659,0.2199902857682901,-0.34722951027453125,0,0,0,1
-1.322109674662659,0.2199902857682901,-0.34722951027453125,0,0,0,1
-1.133471974662659,-0.13288210423170987,1.920057319725469,0,0,0,1
0.6517996953373408,-0.33807204423170983,1.3554548197254688,0,0,0,1
0.6517996953373408,-0.33807204423170983,1.3554548197254688,0,0,0,1
2.050426025337341,-0.1771721642317099,-1.0103479802745312,0,0,0,1
1.246530025337341,0.25773723576829016,0.9665250197254688,0,0,0,1
-1.038793074662659,0.8463122157682902,-0.47765443027453125,0,0,0,1
-0.49977539466265913,1.02781861576829,0.7692710197254689,0,0,0,1
-0.49977539466265913,1.02781861576829,0.7692710197254689,0,0,0,1
-0.46327923466265913,0.7031455857682901,0.3089975197254688,0,0,0,1
-0.46327923466265913,0.7031455857682901,0.3089975197254688,0,0,0,1
0.7501397253373409,-0.3797946642317099,0.7374889197254688,0,0,0,1
1.608541025337341,-0.12651838423170989,-0.6142104802745312,0,0,0,1
0.7964701853373409,-1.04290868423171,-2.1843764802745316,0,0,0,1
0.7964701853373409,-1.04290868423171,-2.1843764802745316,0,0,0,1
-0.9396328746626591,-1.61265718423171,-0.7528801302745312,0,0,0,1
-0.9916844246626592,-0.7129224342317099,3.9445073197254685,0,0,0,1
-1.852699274662659,-0.3166584142317099,2.5035363197254688,0,0,0,1
-1.081517674662659,0.7830397157682901,-0.012891711274531224,0,0,0,1
0.7193036253373409,2.0355976157682902,-1.7195121802745312,0,0,0,1
1.565322425337341,1.30624561576829,-0.006365509374531226,0,0,0,1
1.565322425337341,1.30624561576829,-0.006365509374531226,0,0,0,1
-0.18738315466265912,-0.8161884342317098,1.7481577197254687,0,0,0,1
-0.6381830746626591,0.1344674157682901,0.6665670597254688,0,0,0,1
0.019942776337340894,0.8891808157682901,-0.44227800027453124,0,0,0,1
0.019942776337340894,0.8891808157682901,-0.44227800027453124,0,0,0,1
1.426343425337341,0.40202941576829015,-0.5514684802745312,0,0,0,1
0.8841710253373409,-0.18996123423170988,-0.8955571802745311,0,0,0,1
0.08672095933734089,-0.6895608842317098,-0.3932669802745312,0,0,0,1
-1.055901974662659,-0.8026620842317098,1.0630115197254688,0,0,0,1
-1.055901974662659,-0.8026620842317098,1.0630115197254688,0,0,0,1
-1.563214774662659,-0.6410233242317098,1.5668051197254689,0,0,0,1
-0.8876910046626592,-0.1968667842317099,1.157092519725469,0,0,0,1
2.055044725337341,0.6142596157682901,-0.8410253802745312,0,0,0,1
2.045569925337341,1.12199821576829,-1.8363720802745311,0,0,0,1
0.041947857337340896,1.34949261576829,1.1348129197254688,0,0,0,1
0.041947857337340896,1.34949261576829,1.1348129197254688,0,0,0,1
-0.27691601466265914,-1.6194112842317099,1.1033201197254687,0,0,0,1
-0.27691601466265914,-1.6194112842317099,1.1033201197254687,0,0,0,1
0.4890990453373409,-1.33753298423171,1.6084661197254688,0,0,0,1
-0.2194313846626591,-0.6907941842317099,-1.3726520802745312,0,0,0,1
-0.36861561466265913,0.8386628857682902,0.38900331972546875,0,0,0,1
0.8044734253373409,-1.3956614842317099,0.7194896597254689,0,0,0,1
0.7782921953373408,-1.75538168423171,-1.1869021802745312,0,0,0,1
0.7782921953373408,-1.75538168423171,-1.1869021802745312,0,0,0,1
0.6486382653373409,0.9833086157682901,1.4775521197254688,0,0,0,1
0.3108687553373409,0.38851259576829017,-0.6104747402745312,0,0,0,1
-0.22533844466265912,-0.22488378423170988,-0.7681601402745312,0,0,0,1
0.6965174853373409,0.5397050557682902,0.19043948972546876,0,0,0,1
0.5875163253373409,0.43945689576829017,0.12825278972546877,0,0,0,1
0.5875163253373409,0.43945689576829017,0.12825278972546877,0,0,0,1
0.38470985533734087,-1.27377208423171,3.8117175197254687,0,0,0,1
3.0329060253373408,1.95367601576829,0.8736673197254688,0,0,0,1
2.581841025337341,1.67164141576829,-1.0898633802745312,0,0,0,1
2.581841025337341,1.67164141576829,-1.0898633802745312,0,0,0,1
-1.206137174662659,0.41299794576829013,-5.059652680274532,0,0,0,1
-0.3534903346626591,-1.65186388423171,2.7449453197254687,0,0,0,1
-0.3534903346626591,-1.65186388423171,2.7449453197254687,0,0,0,1
-1.632359974662659,-0.32019273423170985,1.588672019725469,0,0,0,1
0.2937169253373409,1.37654381576829,1.2068979197254688,0,0,0,1
0.2937169253373409,1.37654381576829,1.2068979197254688,0,0,0,1
1.973710525337341,1.39573421576829,-3.1659219802745313,0,0,0,1
3.142365925337341,0.9691500857682901,0.5778652697254688,0,0,0,1
3.142365925337341,0.9691500857682901,0.5778652697254688,0,0,0,1
-0.8133120346626591,-1.32785698423171,-0.3577695502745312,0,0,0,1
-0.37830207466265914,-0.7514333842317099,3.0927853197254684,0,0,0,1
-0.37830207466265914,-0.7514333842317099,3.0927853197254684,0,0,0,1
-0.37830207466265914,-0.7514333842317099,3.0927853197254684,0,0,0,1
-1.976414174662659,1.13296441576829,-1.622874280274531,0,0,0,1
1.187992625337341,1.1956337157682901,-0.030450167274531228,0,0,0,1
1.797667025337341,-0.11220989023170987,-0.9998926202745312,0,0,0,1
1.334442625337341,0.030372837768290126,0.20161787972546877,0,0,0,1
-1.639889274662659,-0.8916970342317099,-2.6391279802745315,0,0,0,1
-1.637881774662659,-0.8838264142317098,-2.588069480274531,0,0,0,1
-1.637881774662659,-0.8838264142317098,-2.588069480274531,0,0,0,1
0.6013970253373409,0.40841736576829013,2.8146560197254686,0,0,0,1
1.085171225337341,0.07680520576829013,-0.7537949402745312,0,0,0,1
1.085171225337341,0.07680520576829013,-0.7537949402745312,0,0,0,1
3.1911187253373408,0.6561917857682902,1.3535141197254688,0,0,0,1
1.494829725337341,0.6251954657682901,0.041177749725468775,0,0,0,1
-1.318117574662659,-0.7398765542317098,0.32797517972546875,0,0,0,1
-1.318117574662659,-0.7398765542317098,0.32797517972546875,0,0,0,1
-1.603391174662659,-0.9811159842317099,0.48280506972546877,0,0,0,1
-0.9098591746626591,0.4982384657682901,1.4948369197254687,0,0,0,1
-0.7853884746626592,0.5688110157682902,-1.6473177802745311,0,0,0,1
1.490601125337341,0.7403393157682902,-0.36639948027453123,0,0,0,1
3.3582435253373406,0.1819849457682901,1.5049105197254689,0,0,0,1
2.1934847253373406,-1.28905638423171,-1.264624280274531,0,0,0,1
1.959834625337341,-0.5734823842317098,-0.32865980027453123,0,0,0,1
1.118738725337341,0.39290295576829015,0.8732078197254688,0,0,0,1
-1.856784274662659,0.28969131576829016,-1.8336540802745311,0,0,0,1
-2.4515475746626594,0.25594188576829013,0.9291933197254688,0,0,0,1
-0.7104677746626591,-0.09948366423170987,-0.7439561202745312,0,0,0,1
-0.7104677746626591,-0.09948366423170987,-0.7439561202745312,0,0,0,1
-0.7104677746626591,-0.09948366423170987,-0.7439561202745312,0,0,0,1
2.6456304253373406,0.10321916976829013,0.6486678197254688,0,0,0,1
3.264913125337341,-0.33043180423170987,-0.32060798027453125,0,0,0,1
1.178829725337341,-0.7574033842317098,-1.0636720802745312,0,0,0,1
-1.212557274662659,-0.6113395542317098,-0.07831606427453124,0,0,0,1
-2.0753707746626593,0.42858511576829017,2.8408081197254687,0,0,0,1
-2.409076274662659,0.4841970957682901,2.1178350197254687,0,0,0,1
-1.765039874662659,0.2141172957682901,-1.0685101802745312,0,0,0,1
2.811194925337341,0.11674676576829013,-0.05254333027453122,0,0,0,1
1.853527525337341,-0.6449001242317098,-1.1661252802745312,0,0,0,1
-0.9348997746626592,-0.6556673842317099,0.3365296397254688,0,0,0,1
-0.9348997746626592,-0.6556673842317099,0.3365296397254688,0,0,0,1
-1.518529374662659,0.21426314576829011,2.2496049197254684,0,0,0,1
-1.366942874662659,0.8185138157682902,0.5486368197254688,0,0,0,1
1.985695425337341,-0.07201055823170988,-1.9864351802745313,0,0,0,1
1.985695425337341,-0.07201055823170988,-1.9864351802745313,0,0,0,1
1.985695425337341,-0.07201055823170988,-1.9864351802745313,0,0,0,1
-0.2480025146626591,-0.9728184142317099,1.5885772197254688,0,0,0,1
-1.865808974662659,-0.4169424842317099,1.4443219197254689,0,0,0,1
-0.6677470046626591,0.5978980157682902,0.18542195972546877,0,0,0,1
0.9091277253373409,0.27422456576829013,0.020729987725468774,0,0,0,1
0.9091277253373409,0.27422456576829013,0.020729987725468774,0,0,0,1
1.315347225337341,-0.46092511423170984,-2.1075954802745316,0,0,0,1
1.189549025337341,0.018073327768290126,0.4781627897254688,0,0,0,1
1.189549025337341,0.018073327768290126,0.4781627897254688,0,0,0,1
-0.8599324046626591,-0.08552938423170987,-2.0978736802745312,0,0,0,1
0.1610388953373409,0.6150937157682902,1.3958166197254689,0,0,0,1
-1.257651774662659,-0.0050886425317098714,-1.6436592802745311,0,0,0,1
-1.257651774662659,-0.0050886425317098714,-1.6436592802745311,0,0,0,1
-1.017880874662659,0.5062893857682902,-2.9384870802745313,0,0,0,1
-0.6107773746626591,2.01134371576829,0.5603266597254688,0,0,0,1
-1.415568774662659,2.4761472157682904,2.8776586197254685,0,0,0,1
-2.0149631746626593,-0.3333710542317099,-1.5126644802745313,0,0,0,1
-2.0149631746626593,-0.3333710542317099,-1.5126644802745313,0,0,0,1
2.1524863253373407,-2.1877638842317095,1.0645003197254688,0,0,0,1
2.4412599253373406,-3.33389468423171,-3.2052340802745314,0,0,0,1
2.687392725337341,-1.78545218423171,-1.2610055802745312,0,0,0,1
0.4694981753373409,0.8018657757682901,1.7243810197254688,0,0,0,1
-3.794609574662659,3.12948441576829,1.674994819725469,0,0,0,1
-1.969453274662659,0.05213487876829013,0.35629525972546877,0,0,0,1
2.601636425337341,-2.4849533842317095,-1.0250012802745312,0,0,0,1
3.771955025337341,-0.5878870842317099,-1.6175889802745311,0,0,0,1
0.9572491853373409,1.07332591576829,0.44516771972546876,0,0,0,1
0.9572491853373409,1.07332591576829,0.44516771972546876,0,0,0,1
-2.3263568746626593,1.27716671576829,0.7732043197254689,0,0,0,1
0.5024914853373409,-0.6399975242317099,0.12249874972546876,0,0,0,1
2.8561969253373407,-0.9177839842317098,-0.27752525027453123,0,0,0,1
1.309290425337341,-0.5740949842317099,-0.8945944802745311,0,0,0,1
0.10810424533734089,0.30720474576829016,0.7498777797254689,0,0,0,1
0.10810424533734089,0.30720474576829016,0.7498777797254689,0,0,0,1
-0.07402275466265912,0.8919300157682901,0.7720353197254688,0,0,0,1
0.6195140253373409,0.6214636157682901,-1.656942680274531,0,0,0,1
1.701955325337341,0.18723951576829012,-0.9550790502745312,0,0,0,1
1.211093425337341,-0.38466866423170987,-0.5847779802745312,0,0,0,1
1.211093425337341,-0.38466866423170987,-0.5847779802745312,0,0,0,1
-1.025486474662659,-0.7576239842317098,0.40183418972546875,0,0,0,1
-0.5682558746626591,-0.01821466923170987,1.5663129197254688,0,0,0,1
-0.4065251146626591,0.5753687757682902,-0.14924139027453123,0,0,0,1
-0.4065251146626591,0.5753687757682902,-0.14924139027453123,0,0,0,1
0.1613612353373409,0.6853401157682901,-2.0467519802745313,0,0,0,1
1.531572825337341,0.5015617757682901,0.40755017972546875,0,0,0,1
1.531572825337341,0.5015617757682901,0.40755017972546875,0,0,0,1
-0.6517548446626591,-0.14424137423170988,-2.4661598802745313,0,0,0,1
-0.8335013246626591,0.28741051576829013,-0.4782997402745312,0,0,0,1
-0.8575424746626591,0.34680904576829014,1.564994219725469,0,0,0,1
-0.9065718746626591,0.030682634768290126,1.1376081197254688,0,0,0,1
-0.9065718746626591,0.030682634768290126,1.1376081197254688,0,0,0,1
-0.0561890446626591,0.03028106276829013,0.3032358597254688,0,0,0,1
-3.0995869746626594,-1.14185868423171,-3.8684416802745316,0,0,0,1
1.017503325337341,-1.57096968423171,3.2162795197254685,0,0,0,1
1.017503325337341,-1.57096968423171,3.2162795197254685,0,0,0,1
0.7992701653373409,-1.95356558423171,1.6601432197254689,0,0,0,1
0.7992701653373409,-1.95356558423171,1.6601432197254689,0,0,0,1
1.785909225337341,0.6478667157682901,-0.5415134102745311,0,0,0,1
-1.178619874662659,0.5769858557682901,-2.7760441802745315,0,0,0,1
-1.632263674662659,0.33788194576829017,0.04739880372546878,0,0,0,1
-0.5415549146626591,-0.47022400423170985,2.2183773197254686,0,0,0,1
-0.5415549146626591,-0.47022400423170985,2.2183773197254686,0,0,0,1
0.7289433653373409,0.6820571557682902,-0.8450123802745312,0,0,0,1
0.37714530533734086,0.26124467576829014,-0.5135546802745312,0,0,0,1
0.6019816553373409,0.031100559768290126,1.656976919725469,0,0,0,1
-0.1270184346626591,-0.061578884231709874,-0.8460616202745311,0,0,0,1
-0.1270184346626591,-0.061578884231709874,-0.8460616202745311,0,0,0,1
0.4820304053373409,0.44111694576829014,-2.1982038802745314,0,0,0,1
1.514168325337341,0.6538045557682901,0.41622629972546876,0,0,0,1
-1.396697474662659,-0.21255825423170988,-0.5201912802745312,0,0,0,1
-0.1720738246626591,-0.1581518442317099,1.6963865197254688,0,0,0,1
0.4447016853373409,0.07575688076829012,0.5030301197254688,0,0,0,1
0.8429427253373409,0.6468186557682901,-2.1221430802745314,0,0,0,1
1.748491725337341,0.7335298857682901,-0.9274843802745312,0,0,0,1
1.748491725337341,0.7335298857682901,-0.9274843802745312,0,0,0,1
1.134403725337341,-0.06393976423170987,-0.15484986027453124,0,0,0,1
-0.6610178746626592,-0.5074419242317099,-0.1256933502745312,0,0,0,1
-0.6610178746626592,-0.5074419242317099,-0.1256933502745312,0,0,0,1
-0.07075451466265911,0.07712845576829012,-0.39242301027453125,0,0,0,1
-0.07075451466265911,0.07712845576829012,-0.39242301027453125,0,0,0,1
0.30080082533734087,0.12462172976829013,1.0253378197254688,0,0,0,1
0.30080082533734087,0.12462172976829013,1.0253378197254688,0,0,0,1
-0.2237696446626591,0.6533787157682901,-0.7703368402745312,0,0,0,1
-0.0607008776626591,0.23350091576829013,-1.2668244802745312,0,0,0,1
0.8873820253373409,0.10417223576829013,0.8205815797254689,0,0,0,1
-0.21489380466265912,-0.5077672442317098,-0.46269354027453125,0,0,0,1
-0.6733784746626591,-0.05133337923170987,-0.5741367802745312,0,0,0,1
-0.6733784746626591,-0.05133337923170987,-0.5741367802745312,0,0,0,1
-0.8573498746626591,0.2710432857682901,-0.19482061027453124,0,0,0,1
0.5544791253373409,0.9452534157682901,-0.3309044002745312,0,0,0,1
1.218250725337341,0.8050633857682902,-1.1885271802745312,0,0,0,1
0.20161582533734088,-0.8256907242317099,1.0903974197254689,0,0,0,1
0.20161582533734088,-0.8256907242317099,1.0903974197254689,0,0,0,1
-0.6906199246626591,-1.19554878423171,0.12366836972546877,0,0,0,1
-0.5975031746626591,-0.10391172423170987,0.5296223197254688,0,0,0,1
-0.7553410346626591,0.7500879157682901,-0.9272586802745312,0,0,0,1
0.6857199853373409,0.1404614057682901,-0.20898596027453123,0,0,0,1
0.1389527453373409,-0.9711790842317098,-0.5628899802745312,0,0,0,1
0.1389527453373409,-0.9711790842317098,-0.5628899802745312,0,0,0,1
0.49542572533734086,0.7916129157682902,1.3775982197254688,0,0,0,1
-0.21224926466265912,0.9862757157682901,-0.4126088302745312,0,0,0,1
-0.21224926466265912,0.9862757157682901,-0.4126088302745312,0,0,0,1
-0.21224926466265912,0.9862757157682901,-0.4126088302745312,0,0,0,1
1.195078425337341,0.09197442576829012,0.35986604972546876,0,0,0,1
-0.4818177046626591,-0.32005972423170986,-0.9975930802745312,0,0,0,1
-0.4818177046626591,-0.32005972423170986,-0.9975930802745312,0,0,0,1
-0.060824854662659106,0.1879353957682901,0.6160093797254689,0,0,0,1
0.8479733653373409,0.07036553576829013,-0.6711849302745312,0,0,0,1
1.377399025337341,0.24654920576829012,0.03818788972546878,0,0,0,1
1.377399025337341,0.24654920576829012,0.03818788972546878,0,0,0,1
-0.004335864202659106,-0.7303417842317098,0.6417693197254688,0,0,0,1
-0.004335864202659106,-0.7303417842317098,0.6417693197254688,0,0,0,1
-0.3972458746626591,-0.32385270423170986,0.060111549725468776,0,0,0,1
-0.08334873466265912,0.5020565857682902,-1.1418039802745312,0,0,0,1
0.8517871253373409,1.53526941576829,0.39593690972546874,0,0,0,1
0.016536252337340896,1.1764658157682901,-0.9637475302745312,0,0,0,1
0.016536252337340896,1.1764658157682901,-0.9637475302745312,0,0,0,1
2.2938123253373406,-0.8622391842317099,1.6453495197254688,0,0,0,1
1.774308725337341,-1.70918628423171,-0.5202496802745312,0,0,0,1
0.10339690533734089,1.4268442157682901,0.6185667197254688,0,0,0,1
0.10339690533734089,1.4268442157682901,0.6185667197254688,0,0,0,1
0.5032448953373408,1.2258896157682901,-0.8802117802745312,0,0,0,1
0.8647875953373408,-0.25043643423170986,-4.316630180274531,0,0,0,1
-0.3910956246626591,-0.9375103542317098,-1.9078216802745311,0,0,0,1
-3.630648074662659,-1.17089938423171,2.3369758197254686,0,0,0,1
-3.630648074662659,-1.17089938423171,2.3369758197254686,0,0,0,1
-1.802124974662659,-0.5395304342317099,0.9827589197254688,0,0,0,1
2.0575519253373407,0.39152147576829016,0.9721060697254689,0,0,0,1
2.964321725337341,0.5422565157682901,-3.7115948802745313,0,0,0,1
2.8124137253373407,0.8137525457682901,-0.09098855027453123,0,0,0,1
2.8124137253373407,0.8137525457682901,-0.09098855027453123,0,0,0,1
-0.9662356246626591,-0.8270851142317098,-0.04074707827453122,0,0,0,1
-2.7704596746626593,-0.33910403423170987,3.5547745197254685,0,0,0,1
-1.765441374662659,0.1343934757682901,0.8609609197254688,0,0,0,1
0.2535309953373409,-0.01113377123170987,-3.1302931802745313,0,0,0,1
3.4768081253373406,0.7878232157682902,-2.1472036802745316,0,0,0,1
3.629476125337341,0.7125692557682901,-0.7384715802745312,0,0,0,1
1.127629725337341,-0.3290894442317099,-2.4505946802745315,0,0,0,1
0.46256592533734087,-0.6969772442317098,0.5393405797254688,0,0,0,1
-1.816410574662659,-0.9500445842317099,0.34647699972546875,0,0,0,1
-1.816410574662659,-0.9500445842317099,0.34647699972546875,0,0,0,1
-1.745898674662659,0.37708141576829013,0.3834649897254688,0,0,0,1
0.07865764533734089,-0.40014974423170985,-0.3253847802745312,0,0,0,1
0.7460408253373408,-0.5409605342317099,-1.200272580274531,0,0,0,1
1.597624325337341,-0.44187496423170985,-1.4749767802745313,0,0,0,1
2.2541490253373406,-0.22881734423170988,-0.7648592802745312,0,0,0,1
-1.105844974662659,0.1593890957682901,-0.8916869802745312,0,0,0,1
-1.456372674662659,0.8777382157682901,2.4096223197254685,0,0,0,1
-1.748160774662659,0.21336852576829013,0.4281931497254688,0,0,0,1
-0.14863346466265911,-0.1405001442317099,-1.766525780274531,0,0,0,1
1.433398725337341,-0.5007684842317098,-2.356743680274531,0,0,0,1
2.072319525337341,-0.30213188423170984,-2.3623173802745314,0,0,0,1
2.469679325337341,-0.20136233423170988,1.9765578197254687,0,0,0,1
-0.3837923746626591,-0.5781070842317099,1.016010019725469,0,0,0,1
-2.1326241746626593,0.39864761576829016,-0.6807887302745311,0,0,0,1
-0.8929247746626591,1.94869921576829,1.4739963197254689,0,0,0,1
-0.8929247746626591,1.94869921576829,1.4739963197254689,0,0,0,1
-0.8929247746626591,1.94869921576829,1.4739963197254689,0,0,0,1
1.072040125337341,0.36850531576829015,0.06400504572546876,0,0,0,1
0.4864669053373409,-1.68413018423171,-1.1432489802745311,0,0,0,1
0.4864669053373409,-1.68413018423171,-1.1432489802745311,0,0,0,1
-0.36613605466265914,0.08672980576829013,1.7019500197254689,0,0,0,1
-0.36613605466265914,0.08672980576829013,1.7019500197254689,0,0,0,1
0.9090028253373409,0.09752856576829012,0.2602722897254688,0,0,0,1
0.9090028253373409,0.09752856576829012,0.2602722897254688,0,0,0,1
0.4029278953373409,-1.05406988423171,-0.22939745027453123,0,0,0,1
0.33540298533734086,-1.43725438423171,0.5271339697254688,0,0,0,1
1.225622725337341,-0.5317229842317098,1.679957319725469,0,0,0,1
0.4296403053373409,0.5807200857682902,-1.1952555802745313,0,0,0,1
-0.6174931346626591,1.55324011576829,-1.634568880274531,0,0,0,1
-0.9650597446626591,0.9098494857682902,0.6151232197254688,0,0,0,1
-0.33533333466265913,-1.22531848423171,-0.010385306274531225,0,0,0,1
-0.33533333466265913,-1.22531848423171,-0.010385306274531225,0,0,0,1
-0.33533333466265913,-1.22531848423171,-0.010385306274531225,0,0,0,1
2.750347725337341,-1.22622178423171,-0.43894628027453125,0,0,0,1
-1.239348874662659,0.07637646576829013,-1.8441022802745313,0,0,0,1
-1.455188274662659,0.8345440857682901,1.684921719725469,0,0,0,1
-1.873156574662659,0.6239904157682902,2.7218173197254685,0,0,0,1
-1.707636374662659,0.08606052576829012,-1.0027848802745312,0,0,0,1
1.676421625337341,0.27047808576829013,0.2610795197254688,0,0,0,1
2.612367125337341,-0.29769240423170984,-1.5334470802745312,0,0,0,1
2.1474690253373407,-0.8404695242317098,0.17131861972546877,0,0,0,1
2.1474690253373407,-0.8404695242317098,0.17131861972546877,0,0,0,1
-0.9175762746626591,-0.5265973842317099,-0.5990747802745312,0,0,0,1
-0.9175762746626591,-0.5265973842317099,-0.5990747802745312,0,0,0,1
-0.9175762746626591,-0.5265973842317099,-0.5990747802745312,0,0,0,1
-1.594970174662659,0.30842463576829016,0.06327315972546876,0,0,0,1
-1.179525874662659,0.08908514576829013,0.05283185672546878,0,0,0,1
0.24984027533734088,-0.1977134442317099,-3.1564824802745313,0,0,0,1
0.24984027533734088,-0.1977134442317099,-3.1564824802745313,0,0,0,1
0.3659205553373409,0.9524587557682902,2.1384909197254687,0,0,0,1
0.3659205553373409,0.9524587557682902,2.1384909197254687,0,0,0,1
-1.499289974662659,0.6772836657682901,1.620905519725469,0,0,0,1
0.15524150533734088,0.31920235576829015,-0.3726456502745312,0,0,0,1
1.141276825337341,0.6492187557682901,0.9397007197254689,0,0,0,1
-0.2988495746626591,-0.7756731842317098,-3.2697188802745316,0,0,0,1
-0.2988495746626591,-0.7756731842317098,-3.2697188802745316,0,0,0,1
1.221389325337341,-0.5558491842317098,0.6406511197254688,0,0,0,1
-1.776737174662659,-1.0276631842317099,-1.8829846802745311,0,0,0,1
-0.2171559146626591,-0.7755247842317099,0.36467673972546877,0,0,0,1
-0.10510776466265911,-0.32643626423170985,1.6029437197254688,0,0,0,1
-0.10510776466265911,-0.32643626423170985,1.6029437197254688,0,0,0,1
0.08078338533734089,2.1104744157682904,1.3518459197254689,0,0,0,1
0.08078338533734089,2.1104744157682904,1.3518459197254689,0,0,0,1
1.709251925337341,0.7851852157682901,-0.6099696502745312,0,0,0,1
1.709251925337341,0.7851852157682901,-0.6099696502745312,0,0,0,1
1.709251925337341,0.7851852157682901,-0.6099696502745312,0,0,0,1
-0.3972382346626591,-0.7881238242317099,-0.2965321802745312,0,0,0,1
-0.6199927146626592,0.00016709016829012874,0.48989411972546876,0,0,0,1
-0.6199927146626592,0.00016709016829012874,0.48989411972546876,0,0,0,1
1.522447125337341,-0.5335589442317099,1.6116290197254688,0,0,0,1
1.758676025337341,-0.6146222142317098,2.8963148197254687,0,0,0,1
1.758676025337341,-0.6146222142317098,2.8963148197254687,0,0,0,1
0.03860904533734089,0.3258901457682901,1.0176835197254688,0,0,0,1
0.03860904533734089,0.3258901457682901,1.0176835197254688,0,0,0,1
0.12033988533734088,-0.9188124342317099,1.7088310197254688,0,0,0,1
0.12033988533734088,-0.9188124342317099,1.7088310197254688,0,0,0,1
3.384001225337341,-0.16282713423170989,-0.46960202027453124,0,0,0,1
3.4923682253373407,0.07077294176829013,-0.9200743802745311,0,0,0,1
-1.377478074662659,0.6536646157682902,-1.3849376802745312,0,0,0,1
-2.6016072746626593,0.5856049157682901,0.8693669697254688,0,0,0,1
-2.6016072746626593,0.5856049157682901,0.8693669697254688,0,0,0,1
-2.6016072746626593,0.5856049157682901,0.8693669697254688,0,0,0,1
-3.458714974662659,-0.13902452423170988,1.6418074197254688,0,0,0,1
2.8308817253373406,-0.07861858423170986,-0.25007615027453123,0,0,0,1
2.8308817253373406,-0.07861858423170986,-0.25007615027453123,0,0,0,1
2.8308817253373406,-0.07861858423170986,-0.25007615027453123,0,0,0,1
2.8308817253373406,-0.07861858423170986,-0.25007615027453123,0,0,0,1
4.849897725337341,-0.03755007423170987,-1.1358325802745313,0,0,0,1
2.3979201253373406,0.5547103157682901,-1.6808618802745312,0,0,0,1
-0.1307453946626591,-0.46117238423170986,-0.8491308802745312,0,0,0,1
-2.7278065746626594,-0.6353382242317098,1.4770557197254688,0,0,0,1
-4.432254274662659,-0.24378780423170987,2.8435819197254686,0,0,0,1
-3.5593785746626594,-0.39157126423170985,3.8449318197254687,0,0,0,1
-1.858722174662659,-0.6848817242317099,1.2887678197254688,0,0,0,1
5.2667317253373405,0.46813006576829014,-1.0225136802745312,0,0,0,1
5.2667317253373405,0.46813006576829014,-1.0225136802745312,0,0,0,1
2.995946425337341,-0.32255418423170984,-3.3767383802745314,0,0,0,1
0.6548648253373409,-0.8918975442317099,-1.464382480274531,0,0,0,1
-1.293136074662659,0.2433135657682901,3.2615888197254685,0,0,0,1
-1.293136074662659,0.2433135657682901,3.2615888197254685,0,0,0,1
-4.600508274662659,0.7885024157682902,1.0943851197254688,0,0,0,1
1.682377325337341,-1.16029098423171,-2.1846704802745314,0,0,0,1
1.682377325337341,-1.16029098423171,-2.1846704802745314,0,0,0,1
3.013315725337341,-1.30796978423171,-3.2957744802745315,0,0,0,1
4.4332947253373405,-0.6069147442317099,-0.8111995802745312,0,0,0,1
-2.293514674662659,0.9002966157682901,-0.09319338027453122,0,0,0,1
-2.293514674662659,0.9002966157682901,-0.09319338027453122,0,0,0,1
-4.493839774662659,0.5055905757682901,-0.4320523502745312,0,0,0,1
-1.830654574662659,-0.5593369842317099,4.360352719725468,0,0,0,1
-1.830654574662659,-0.5593369842317099,4.360352719725468,0,0,0,1
-1.129848974662659,-0.6533935842317099,0.6799946697254688,0,0,0,1
1.726793725337341,-0.34069655423170986,-2.8676562802745313,0,0,0,1
4.15171972533734,1.5127467157682901,-0.8895237202745312,0,0,0,1
4.15171972533734,1.5127467157682901,-0.8895237202745312,0,0,0,1
0.7844910753373409,1.01834731576829,-3.5226163802745316,0,0,0,1
0.6056313653373409,-0.11519328923170986,0.11918391972546877,0,0,0,1
-0.7180990746626591,-1.04784298423171,4.156948319725468,0,0,0,1
-4.386421674662659,-0.6345450842317099,1.0102923197254687,0,0,0,1
-3.6046632746626592,0.32588373576829016,1.0871369197254688,0,0,0,1
0.3444752853373409,0.44776238576829014,0.48172021972546875,0,0,0,1
0.3444752853373409,0.44776238576829014,0.48172021972546875,0,0,0,1
0.3444752853373409,0.44776238576829014,0.48172021972546875,0,0,0,1
2.156867525337341,-0.15027950423170988,-2.6106665802745312,0,0,0,1
2.5626997253373407,0.22523197576829013,-1.7473207802745312,0,0,0,1
2.5626997253373407,0.22523197576829013,-1.7473207802745312,0,0,0,1
-1.175381174662659,0.20102577576829012,0.6552688197254688,0,0,0,1
-1.175381174662659,0.20102577576829012,0.6552688197254688,0,0,0,1
-2.377979274662659,0.39394693576829015,-0.14234987027453122,0,0,0,1
-2.377979274662659,0.39394693576829015,-0.14234987027453122,0,0,0,1
-2.377979274662659,0.39394693576829015,-0.14234987027453122,0,0,0,1
0.2712111653373409,-0.7034266442317099,-0.5088561802745312,0,0,0,1
1.226697425337341,-0.6934260542317099,-1.4148838802745312,0,0,0,1
1.357039025337341,0.37214835576829014,-0.33038476027453123,0,0,0,1
0.2719464453373409,0.8125268157682901,0.5040998197254688,0,0,0,1
-2.186490074662659,-0.021807145231709874,-0.43734053027453124,0,0,0,1
-2.186490074662659,-0.021807145231709874,-0.43734053027453124,0,0,0,1
-2.624002874662659,0.03774395176829013,0.7584469197254688,0,0,0,1
2.288738725337341,-1.1002026842317099,-1.7852580802745313,0,0,0,1
2.3123231253373406,-0.42944656423170985,0.4589770197254688,0,0,0,1
0.06692840533734089,0.42570106576829014,0.5405950197254689,0,0,0,1
-1.699240174662659,0.37679823576829014,-0.44191733027453123,0,0,0,1
-1.616472674662659,0.5923471157682901,0.8462970197254688,0,0,0,1
-1.008493874662659,0.5330207557682901,2.1924698197254684,0,0,0,1
-0.2135376746626591,0.13601931576829013,0.09904542372546878,0,0,0,1
2.068450425337341,0.38087965576829014,-1.6651527802745312,0,0,0,1
2.068450425337341,0.38087965576829014,-1.6651527802745312,0,0,0,1
1.888060125337341,1.2242535157682901,-0.2726041402745312,0,0,0,1
-0.8248991746626592,0.3530742157682901,0.6350186797254688,0,0,0,1
-0.8248991746626592,0.3530742157682901,0.6350186797254688,0,0,0,1
-0.8550371746626592,-0.8048858442317098,1.0689952197254688,0,0,0,1
-0.8550371746626592,-0.8048858442317098,1.0689952197254688,0,0,0,1
0.5529275253373409,-0.14116476423170987,2.0496895197254688,0,0,0,1
1.191556425337341,-0.20706873423170988,-1.7126259802745312,0,0,0,1
2.014984725337341,0.0019183118682901286,0.17447324972546877,0,0,0,1
0.5740142253373409,0.09290177576829013,0.4366143897254688,0,0,0,1
-0.6409268246626592,0.40247861576829014,0.8890688197254688,0,0,0,1
-0.6409268246626592,0.40247861576829014,0.8890688197254688,0,0,0,1
-0.6422447746626591,0.13421754576829012,1.4910504197254688,0,0,0,1
0.011511342337340896,-0.4229051542317099,-0.6870302302745311,0,0,0,1
1.306756525337341,-0.4008976342317099,1.472272119725469,0,0,0,1
0.6075606253373409,-1.22822678423171,-0.5152982202745312,0,0,0,1
1.026449725337341,-0.7985016842317099,-0.37197170027453125,0,0,0,1
1.249208925337341,-0.22446030423170987,1.997272719725469,0,0,0,1
0.3907408853373409,0.8561138157682902,-0.6518898802745312,0,0,0,1
-1.006456874662659,-0.9515561242317099,-0.46667364027453123,0,0,0,1
-2.091535074662659,-3.20986148423171,-1.546854280274531,0,0,0,1
-1.811631174662659,0.4695618657682901,0.7108784597254688,0,0,0,1
0.1906943453373409,1.5667109157682901,1.252425719725469,0,0,0,1
3.2264380253373406,0.36713694576829015,-0.6933219802745312,0,0,0,1
2.6028037253373406,-0.5456541842317099,-1.5738696802745311,0,0,0,1
-3.254530874662659,-0.010627877231709871,2.9244267197254685,0,0,0,1
-2.3982629746626594,0.1338299957682901,-0.10425776027453124,0,0,0,1
-3.254530874662659,-0.010627877231709871,2.9244267197254685,0,0,0,1
-2.3982629746626594,0.1338299957682901,-0.10425776027453124,0,0,0,1
4.50473472533734,-0.2173431342317099,-2.8718016802745314,0,0,0,1
3.640522525337341,-0.11014012423170987,-1.2346796802745312,0,0,0,1
3.640522525337341,-0.11014012423170987,-1.2346796802745312,0,0,0,1
-0.029088480662659105,-0.10938252423170987,-0.13539231027453122,0,0,0,1
-2.950314974662659,0.4971299357682901,0.8714449197254688,0,0,0,1
-1.661773174662659,-0.6940740142317099,0.8214145597254688,0,0,0,1
1.741281025337341,-0.014993649231709873,0.7429208197254689,0,0,0,1
1.741281025337341,-0.014993649231709873,0.7429208197254689,0,0,0,1
4.21617072533734,0.12405969576829012,-1.0524791802745312,0,0,0,1
4.665484725337341,0.3457428357682901,-2.7007863802745313,0,0,0,1
3.534195425337341,1.07486201576829,-0.5188690802745312,0,0,0,1
0.4483685653373409,1.6246393157682901,-0.7122166502745312,0,0,0,1
-1.507413374662659,1.94686871576829,0.19846145972546878,0,0,0,1
-1.507413374662659,1.94686871576829,0.19846145972546878,0,0,0,1
-2.6100392746626593,1.58666291576829,0.7128647197254688,0,0,0,1
-2.6100392746626593,1.58666291576829,0.7128647197254688,0,0,0,1
4.09362372533734,1.72310491576829,-0.4441286002745312,0,0,0,1
2.1681227253373407,-1.21911198423171,-0.20638481027453123,0,0,0,1
0.5535474253373409,-0.7569407842317099,3.5057709197254687,0,0,0,1
0.5535474253373409,-0.7569407842317099,3.5057709197254687,0,0,0,1
-6.054338874662659,1.3698437157682901,1.4390403197254689,0,0,0,1
-6.054338874662659,1.3698437157682901,1.4390403197254689,0,0,0,1
-1.384362674662659,0.9295066157682902,1.9982769197254686,0,0,0,1
1.099484925337341,0.03929527576829013,0.18503616972546877,0,0,0,1
1.949143925337341,-0.7103075842317098,-3.7243702802745315,0,0,0,1
4.890476725337341,-1.26689488423171,-1.0655806802745311,0,0,0,1
4.890476725337341,-1.26689488423171,-1.0655806802745311,0,0,0,1
0.3345818653373409,0.08627856076829013,-1.6147452802745312,0,0,0,1
0.3345818653373409,0.08627856076829013,-1.6147452802745312,0,0,0,1
-3.2302884746626592,1.66982381576829,0.8169593197254689,0,0,0,1
-3.6946582746626593,-0.5638419242317099,1.7386375197254689,0,0,0,1
-2.0342272746626593,-0.7648403442317099,0.5372726197254688,0,0,0,1
-2.0342272746626593,-0.7648403442317099,0.5372726197254688,0,0,0,1
1.477796125337341,0.06947736576829013,0.000696061725468774,0,0,0,1
4.043730225337341,-0.34791891423170984,-1.7398448802745312,0,0,0,1
-1.693249174662659,0.24471409576829012,0.7320416897254688,0,0,0,1
-3.220667774662659,0.5179243157682901,2.0684142197254687,0,0,0,1
-3.220667774662659,0.5179243157682901,2.0684142197254687,0,0,0,1
-2.9909052746626594,0.6171273157682902,0.9533107197254689,0,0,0,1
-2.9909052746626594,0.6171273157682902,0.9533107197254689,0,0,0,1
3.366434625337341,-0.07027248423170987,-3.4282000802745314,0,0,0,1
3.366434625337341,-0.07027248423170987,-3.4282000802745314,0,0,0,1
4.506975725337341,-0.46345962423170983,-2.8720064802745315,0,0,0,1
4.506975725337341,-0.46345962423170983,-2.8720064802745315,0,0,0,1
-1.033933174662659,0.5253503457682901,1.0877765197254687,0,0,0,1
-2.6718572746626594,0.6985895157682901,2.5441536197254684,0,0,0,1
-0.11010025466265912,-0.41592453423170983,0.27333111972546875,0,0,0,1
-0.11010025466265912,-0.41592453423170983,0.27333111972546875,0,0,0,1
2.664957525337341,-0.7195553842317098,0.13085273972546876,0,0,0,1
1.944545325337341,-0.5755300342317099,-2.6194162802745313,0,0,0,1
1.944545325337341,-0.5755300342317099,-2.6194162802745313,0,0,0,1
0.36988879533734087,0.29247917576829013,0.19526120972546876,0,0,0,1
0.36988879533734087,0.29247917576829013,0.19526120972546876,0,0,0,1
-1.435936474662659,0.6958346557682902,1.0397948197254687,0,0,0,1
-1.435936474662659,0.6958346557682902,1.0397948197254687,0,0,0,1
-0.7670082746626591,-0.5541811842317098,-1.0369920802745312,0,0,0,1
2.7155204253373406,-0.5013606342317098,-0.13537887027453124,0,0,0,1
0.2297129753373409,1.80455021576829,1.7511761197254687,0,0,0,1
0.2297129753373409,1.80455021576829,1.7511761197254687,0,0,0,1
-3.2348069746626593,0.9627703157682902,-2.3222353802745315,0,0,0,1
-3.2348069746626593,0.9627703157682902,-2.3222353802745315,0,0,0,1
-0.4188446746626591,-0.11516670423170987,3.4701943197254685,0,0,0,1
2.0981402253373407,-0.25955091423170984,-0.006615103774531225,0,0,0,1
2.0981402253373407,-0.25955091423170984,-0.006615103774531225,0,0,0,1
2.8361964253373406,0.2066982757682901,-2.9837944802745313,0,0,0,1
1.993095925337341,0.6063866757682902,-2.8341391802745313,0,0,0,1
-1.471434074662659,-0.06562406923170987,2.9263843197254684,0,0,0,1
-3.230585074662659,-0.006500851231709872,0.36950251972546877,0,0,0,1
-3.230585074662659,-0.006500851231709872,0.36950251972546877,0,0,0,1
-1.359156074662659,0.8799468157682901,1.3456552197254688,0,0,0,1
0.7737536553373409,1.40048901576829,0.5837344797254689,0,0,0,1
1.545598525337341,0.7409854757682901,-1.4487481802745312,0,0,0,1
2.9196410253373406,-0.05331258123170987,-1.600332780274531,0,0,0,1
2.6322999253373407,-0.49470494423170985,-1.698101780274531,0,0,0,1
-2.328400574662659,-0.04965550823170987,-0.5664918102745312,0,0,0,1
-3.4120158746626594,-1.0195570842317099,0.9433177197254689,0,0,0,1
-0.3155569746626591,-1.74443338423171,1.9743671197254689,0,0,0,1
-0.3155569746626591,-1.74443338423171,1.9743671197254689,0,0,0,1
2.787362625337341,-0.2020046842317099,-2.5144536802745314,0,0,0,1
2.787362625337341,-0.2020046842317099,-2.5144536802745314,0,0,0,1
2.8625045253373407,0.34960098576829013,-2.8085985802745315,0,0,0,1
1.606779625337341,0.14168624576829011,0.12233101972546878,0,0,0,1
-0.8265995746626591,0.7332250657682902,1.1062345197254688,0,0,0,1
0.44693996533734087,-0.2739140842317099,-0.9102286402745312,0,0,0,1
0.44693996533734087,-0.2739140842317099,-0.9102286402745312,0,0,0,1
2.8411269253373406,-0.31997613423170984,0.13366954972546877,0,0,0,1
3.561100525337341,-0.0031123572317098714,-0.21360719027453123,0,0,0,1
1.048057125337341,1.00664161576829,-1.0921108802745312,0,0,0,1
-2.3024096746626594,0.7298438757682901,2.5607109197254685,0,0,0,1
-1.792553374662659,-0.07555041823170987,3.324535319725469,0,0,0,1
0.7244734953373408,-0.06048495423170987,-2.8419039802745316,0,0,0,1
3.762654725337341,0.47406469576829013,0.6357235597254688,0,0,0,1
2.3833508253373408,-0.18557233423170988,-0.3223341402745312,0,0,0,1
-0.4686617746626591,0.6897556157682901,0.9931926197254688,0,0,0,1
-1.619653174662659,0.6537642657682902,0.09965973972546877,0,0,0,1
-1.619653174662659,0.6537642657682902,0.09965973972546877,0,0,0,1
-0.9757504346626591,0.5029152857682901,0.7529623197254688,0,0,0,1
-0.06205795466265911,-0.15342421423170988,-0.46413851027453124,0,0,0,1
0.6565690253373409,0.11047455976829013,-0.33533150027453124,0,0,0,1
2.374561725337341,1.60637591576829,-0.7096581802745312,0,0,0,1
2.374561725337341,1.60637591576829,-0.7096581802745312,0,0,0,1
-2.427883174662659,-0.8629070342317099,-2.7401769802745313,0,0,0,1
-2.427883174662659,-0.8629070342317099,-2.7401769802745313,0,0,0,1
-1.569130374662659,-0.8054592442317099,1.5730735197254688,0,0,0,1
-1.317184874662659,-0.5122274842317098,0.8324894597254688,0,0,0,1
-1.563459874662659,0.27573931576829014,-3.268652980274531,0,0,0,1
2.1181788253373406,1.01281881576829,-0.15849438027453122,0,0,0,1
2.1181788253373406,1.01281881576829,-0.15849438027453122,0,0,0,1
2.1634889253373406,0.2058100757682901,-0.24131057027453123,0,0,0,1
-1.771528674662659,0.8148433157682902,-0.5957290202745312,0,0,0,1
-1.771528674662659,0.8148433157682902,-0.5957290202745312,0,0,0,1
-1.771528674662659,0.8148433157682902,-0.5957290202745312,0,0,0,1
-1.771528674662659,0.8148433157682902,-0.5957290202745312,0,0,0,1
-1.091235574662659,1.31648761576829,-2.4345812802745312,0,0,0,1
0.0737176103373409,-0.5831413842317098,1.1298749197254687,0,0,0,1
0.037871855337340894,-0.013233673231709871,0.21944520972546877,0,0,0,1
1.678115425337341,0.20307771576829012,-0.19728556027453123,0,0,0,1
1.468488225337341,0.32257883576829016,-1.0698633802745312,0,0,0,1
-0.4141335346626591,-0.36645148423170987,-0.20294434027453123,0,0,0,1
-0.14412353466265912,0.14723980576829013,2.3085119197254684,0,0,0,1
-0.14412353466265912,0.14723980576829013,2.3085119197254684,0,0,0,1
0.6555438253373409,0.8201782157682902,-1.4471242802745312,0,0,0,1
1.291222125337341,1.39377131576829,-1.0937644802745312,0,0,0,1
1.291222125337341,1.39377131576829,-1.0937644802745312,0,0,0,1
1.010958225337341,1.05103171576829,-1.3378526802745312,0,0,0,1
0.7647328253373409,0.47757594576829016,0.9722059697254688,0,0,0,1
0.7647328253373409,0.47757594576829016,0.9722059697254688,0,0,0,1
0.7647328253373409,0.47757594576829016,0.9722059697254688,0,0,0,1
-0.28383967466265914,-0.6518481142317099,0.9160550497254688,0,0,0,1
0.7095017553373408,0.7250537157682901,0.8643839197254688,0,0,0,1
0.7095017553373408,0.7250537157682901,0.8643839197254688,0,0,0,1
0.6219687653373409,0.9251793757682901,-0.7317338302745312,0,0,0,1
1.0627103253373409,0.22818732576829012,-1.956770780274531,0,0,0,1
1.096486625337341,-0.5564841842317099,-0.44190684027453125,0,0,0,1
-1.372973874662659,0.1933843057682901,1.448395019725469,0,0,0,1
-1.402298474662659,0.0016842071682901284,-0.22382635027453124,0,0,0,1
-1.402298474662659,0.0016842071682901284,-0.22382635027453124,0,0,0,1
-0.5166363746626591,0.5343780157682901,-0.12008834027453123,0,0,0,1
-0.6035771246626591,0.21956007576829012,-2.1227948802745313,0,0,0,1
0.7611947253373409,0.08626073576829013,2.3468027197254684,0,0,0,1
0.7611947253373409,0.08626073576829013,2.3468027197254684,0,0,0,1
-0.6549572746626591,-1.23598358423171,-1.4184336802745312,0,0,0,1
0.6238274753373408,-0.4719457442317099,-0.34900701027453124,0,0,0,1
1.045146525337341,0.48533167576829017,0.4552881197254688,0,0,0,1
-0.4859232746626591,1.09610291576829,-1.9955672802745312,0,0,0,1
-0.16056107466265912,0.8763078657682901,0.24697271972546875,0,0,0,1
-0.4802145746626591,0.09427219576829013,0.04438909772546878,0,0,0,1
-0.5376105146626591,-0.8184537842317099,-1.3208377802745312,0,0,0,1
0.5855326853373409,-0.10808579423170987,-0.11217567527453123,0,0,0,1
0.8093085253373409,0.40261625576829013,0.3715085997254688,0,0,0,1
-0.1725191946626591,-0.47857765423170984,-0.5756361202745311,0,0,0,1
-0.1725191946626591,-0.47857765423170984,-0.5756361202745311,0,0,0,1
-0.1247200806626591,-0.09452283023170988,-0.9542554802745312,0,0,0,1
1.284719925337341,0.6743289157682901,-1.672867780274531,0,0,0,1
-0.9799876046626591,1.98343561576829,-2.0957589802745313,0,0,0,1
-1.778347474662659,1.40872631576829,0.7992144197254688,0,0,0,1
-1.778347474662659,1.40872631576829,0.7992144197254688,0,0,0,1
-1.484806474662659,1.0304208157682901,2.4319090197254685,0,0,0,1
3.826913325337341,-3.92840858423171,-0.056469560274531226,0,0,0,1
2.6123805253373407,-3.2994808842317096,-1.8646599802745312,0,0,0,1
2.6123805253373407,-3.2994808842317096,-1.8646599802745312,0,0,0,1
1.146768125337341,-1.15282408423171,-0.2943255802745312,0,0,0,1
-1.215046374662659,1.49467771576829,0.7037145797254688,0,0,0,1
-4.0503942746626596,1.89258891576829,0.32796871972546876,0,0,0,1
-4.0503942746626596,1.89258891576829,0.32796871972546876,0,0,0,1
3.3464065253373407,-0.8301547842317099,0.11530388972546878,0,0,0,1
4.660271225337341,-1.68295688423171,-2.0162458802745316,0,0,0,1
4.660271225337341,-1.68295688423171,-2.0162458802745316,0,0,0,1
2.6024365253373407,0.19325951576829012,0.8112163197254688,0,0,0,1
-1.782758274662659,0.5397211457682901,-0.9375825802745311,0,0,0,1
-1.782758274662659,0.5397211457682901,-0.9375825802745311,0,0,0,1
-1.905750774662659,1.0204459157682901,3.5933320197254686,0,0,0,1
-0.9452261746626591,0.19593604576829013,1.2462590197254688,0,0,0,1
0.9652409753373409,-0.7775655842317098,-2.5344989802745315,0,0,0,1
4.00803332533734,-0.9257933842317099,-1.0159266802745313,0,0,0,1
0.2820696953373409,-0.39514098423170985,-2.7029046802745316,0,0,0,1
-1.503057974662659,0.8160395157682901,2.0400896197254688,0,0,0,1
2.423081925337341,-0.6000620542317099,-1.694702680274531,0,0,0,1
1.901423925337341,0.6151694157682901,0.36729943972546875,0,0,0,1
1.901423925337341,0.6151694157682901,0.36729943972546875,0,0,0,1
1.901423925337341,0.6151694157682901,0.36729943972546875,0,0,0,1
-0.3298096446626591,-2.0461668842317096,0.8112643197254689,0,0,0,1
2.0987410253373406,0.5521471657682901,-0.5224738402745311,0,0,0,1
0.029824749337340896,1.83306211576829,-2.6715514802745313,0,0,0,1
0.029824749337340896,1.83306211576829,-2.6715514802745313,0,0,0,1
0.029824749337340896,1.83306211576829,-2.6715514802745313,0,0,0,1
-2.0628947746626594,1.11352671576829,-0.45978561027453124,0,0,0,1
-2.370999774662659,-0.08308812423170987,0.9449725197254688,0,0,0,1
-2.370999774662659,-0.08308812423170987,0.9449725197254688,0,0,0,1
-0.7345900346626592,-1.43208608423171,1.2545838197254688,0,0,0,1
0.5207829653373409,-1.87662018423171,-1.6777976802745311,0,0,0,1
0.5207829653373409,-1.87662018423171,-1.6777976802745311,0,0,0,1
1.175959125337341,0.45626831576829013,-1.970366080274531,0,0,0,1
-0.1409897646626591,0.5289568457682902,-2.809195980274531,0,0,0,1
-0.8804621746626591,-0.5878721842317098,1.3512089197254689,0,0,0,1
-0.8804621746626591,-0.5878721842317098,1.3512089197254689,0,0,0,1
-0.1549515546626591,-0.39332198423170983,0.37548801972546875,0,0,0,1
-0.1549515546626591,-0.39332198423170983,0.37548801972546875,0,0,0,1
1.332036525337341,0.35712729576829016,1.5405921197254688,0,0,0,1
0.0427842303373409,-0.08640440923170987,-2.3060793802745314,0,0,0,1
0.0427842303373409,-0.08640440923170987,-2.3060793802745314,0,0,0,1
1.022292625337341,0.4718640157682901,-0.8345599502745312,0,0,0,1
1.032779225337341,0.26509638576829014,1.394350619725469,0,0,0,1
-0.8240589746626591,0.47530241576829013,-1.2685312802745312,0,0,0,1
-0.08578060466265912,0.32812245576829013,0.8656382197254688,0,0,0,1
-0.08578060466265912,0.32812245576829013,0.8656382197254688,0,0,0,1
-1.104599474662659,-0.5421853442317098,-0.36869431027453126,0,0,0,1
-0.4792351546626591,-1.18541168423171,-1.4504507802745312,0,0,0,1
-0.4792351546626591,-1.18541168423171,-1.4504507802745312,0,0,0,1
0.5357718653373409,-0.36067698423170985,0.17548333972546876,0,0,0,1
0.5357718653373409,-0.36067698423170985,0.17548333972546876,0,0,0,1
0.11909915533734089,1.17168311576829,-0.9998002802745312,0,0,0,1
-1.048152474662659,-0.38884304423170984,-0.3945839102745312,0,0,0,1
-0.017808421662659106,-1.39316128423171,2.245410919725469,0,0,0,1
-0.017808421662659106,-1.39316128423171,2.245410919725469,0,0,0,1
-0.5315203746626591,-0.6737734842317099,-1.5881471802745313,0,0,0,1
0.10094119533734089,0.4565226157682901,-1.9622640802745313,0,0,0,1
-0.024561388662659105,1.29631571576829,-0.6861236402745312,0,0,0,1
-1.396642174662659,0.9573495157682902,2.4489865197254685,0,0,0,1
-0.7591872046626591,0.39765133576829015,2.4489865197254685,0,0,0,1
0.4329371653373409,-0.6583848442317098,0.9080927197254688,0,0,0,1
0.8212533253373409,-1.4464911842317099,-2.1577563802745314,0,0,0,1
0.9529109253373409,0.5205672157682901,0.3103687797254688,0,0,0,1
0.9529109253373409,0.5205672157682901,0.3103687797254688,0,0,0,1
-1.006056274662659,0.5505488157682902,-0.07059863027453123,0,0,0,1
-1.463614874662659,0.5820539157682901,0.20855031972546878,0,0,0,1
-0.2601828446626591,-0.9044646842317099,-0.9455180502745312,0,0,0,1
-0.2601828446626591,-0.9044646842317099,-0.9455180502745312,0,0,0,1
0.7312560253373409,-0.7531001342317099,0.9505103197254688,0,0,0,1
1.076059825337341,0.2326489757682901,-0.8454548802745312,0,0,0,1
1.076059825337341,0.2326489757682901,-0.8454548802745312,0,0,0,1
0.6534104253373408,-0.015111144231709872,-1.675567180274531,0,0,0,1
0.7442298253373408,-0.01550541423170987,1.0044026197254687,0,0,0,1
0.7442298253373408,-0.01550541423170987,1.0044026197254687,0,0,0,1
-0.10954044466265911,-0.46871886423170983,0.4766260697254688,0,0,0,1
-1.427834974662659,-0.2702385842317099,-1.0253116802745312,0,0,0,1
-1.741653874662659,0.49104215576829013,-0.3261802802745312,0,0,0,1
-0.7668585746626592,-0.17792504423170988,1.660699719725469,0,0,0,1
0.7457204253373408,-0.5677903842317099,0.5978892697254689,0,0,0,1
0.7457204253373408,-0.5677903842317099,0.5978892697254689,0,0,0,1
1.131900325337341,0.5596279157682902,-1.518356480274531,0,0,0,1
-0.2377590946626591,-0.5718334842317099,0.4991044697254688,0,0,0,1
-0.2377590946626591,-0.5718334842317099,0.4991044697254688,0,0,0,1
-1.325163374662659,-0.9774992842317098,1.2236702197254687,0,0,0,1
-1.646320774662659,-0.6100570842317099,0.7009299697254688,0,0,0,1
1.036991625337341,1.22199231576829,0.7076437197254688,0,0,0,1
1.036991625337341,1.22199231576829,0.7076437197254688,0,0,0,1
2.6238617253373406,-0.7016832842317099,1.5659060197254688,0,0,0,1
2.6238617253373406,-0.7016832842317099,1.5659060197254688,0,0,0,1
0.8946252253373409,0.6004973857682901,-0.4834452602745312,0,0,0,1
-0.3939661746626591,1.2990764157682901,-1.747544580274531,0,0,0,1
-1.667646874662659,0.8622626157682901,1.4441595197254689,0,0,0,1
-0.05290554466265911,-0.2098142342317099,0.9689606697254688,0,0,0,1
2.1931997253373408,-1.05907848423171,-1.3269687802745311,0,0,0,1
2.9140153253373406,-0.8431462842317099,-0.8052169802745311,0,0,0,1
1.047581225337341,-0.5160753542317098,-0.9870950802745312,0,0,0,1
-0.7948803746626592,-0.5085156842317099,-0.9963556802745311,0,0,0,1
-1.179207274662659,-0.0033686872317098713,0.12450774972546877,0,0,0,1
0.08990337033734089,0.5405798157682902,-0.22547648027453124,0,0,0,1
1.684805425337341,-0.46697492423170983,-0.7266811802745312,0,0,0,1
1.292762325337341,-1.77596798423171,-1.6779397802745313,0,0,0,1
1.292762325337341,-1.77596798423171,-1.6779397802745313,0,0,0,1
1.292762325337341,-1.77596798423171,-1.6779397802745313,0,0,0,1
-4.014883274662659,0.3889516157682901,-0.17253339027453124,0,0,0,1
1.805933525337341,-0.2064585042317099,-2.0544648802745313,0,0,0,1
3.625789225337341,-0.7168720842317099,-0.8344857402745312,0,0,0,1
3.625789225337341,-0.7168720842317099,-0.8344857402745312,0,0,0,1
-0.2807297546626591,1.5567147157682901,1.180114019725469,0,0,0,1
-2.0673875746626593,0.9029798657682901,-0.4176842302745312,0,0,0,1
-2.5897507746626593,0.34304149576829013,0.7271562497254688,0,0,0,1
-2.5897507746626593,0.34304149576829013,0.7271562497254688,0,0,0,1
2.549983525337341,-1.21410378423171,-1.267235380274531,0,0,0,1
2.549983525337341,-1.21410378423171,-1.267235380274531,0,0,0,1
1.007138725337341,-0.33091488423170984,-2.7026212802745313,0,0,0,1
-0.5290951746626591,0.5873830457682901,-2.1960682802745315,0,0,0,1
-3.003112274662659,0.4858615157682901,0.6843014597254689,0,0,0,1
-3.003112274662659,0.4858615157682901,0.6843014597254689,0,0,0,1
-3.5166205746626593,-0.25736622423170985,-1.5987346802745313,0,0,0,1
0.4057021253373409,0.12983771576829012,1.4006313197254687,0,0,0,1
2.896442925337341,-0.3612422142317099,-3.0433068802745313,0,0,0,1
2.751723725337341,-0.20676098423170988,-0.6340718802745312,0,0,0,1
0.3533988253373409,0.42376394576829013,-0.28560158027453125,0,0,0,1
-1.390175274662659,0.5853483157682902,0.6664624497254689,0,0,0,1
-1.390175274662659,0.5853483157682902,0.6664624497254689,0,0,0,1
-0.8790955346626591,0.15208696576829012,1.246258419725469,0,0,0,1
1.878417525337341,-0.00963885723170987,0.36454575972546877,0,0,0,1
1.878417525337341,-0.00963885723170987,0.36454575972546877,0,0,0,1
0.8656573253373409,-0.06619631923170986,-0.6775936802745312,0,0,0,1
0.8656573253373409,-0.06619631923170986,-0.6775936802745312,0,0,0,1
-2.4962892746626593,0.05466937576829013,0.5846358197254689,0,0,0,1
-2.4962892746626593,0.05466937576829013,0.5846358197254689,0,0,0,1
-2.6678399746626593,-0.08515527423170988,-0.43609551027453125,0,0,0,1
0.8555503253373409,-0.11300336923170987,-0.05022278627453122,0,0,0,1
1.167535325337341,-0.8071944542317099,-1.8304378802745311,0,0,0,1
1.705514425337341,-0.02558606523170987,-0.43886554027453123,0,0,0,1
0.6391082253373409,0.20000371576829012,-0.14427996027453122,0,0,0,1
0.6391082253373409,0.20000371576829012,-0.14427996027453122,0,0,0,1
-0.7244438746626591,0.1742675157682901,-0.5865140302745312,0,0,0,1
-0.7952885746626591,0.5483287757682901,0.041696785725468775,0,0,0,1
-1.959429274662659,0.28986956576829015,-0.034112201274531226,0,0,0,1
-0.011594279462659104,0.3319712457682901,1.7061667197254688,0,0,0,1
1.814253325337341,0.17274191576829012,0.21821480972546878,0,0,0,1
1.806085125337341,-0.5155933842317099,-2.0640006802745314,0,0,0,1
1.288717725337341,0.3423923757682901,0.6702787597254688,0,0,0,1
1.288717725337341,0.3423923757682901,0.6702787597254688,0,0,0,1
-0.5756706746626591,0.2220533557682901,0.6058264697254688,0,0,0,1
-0.44205139466265914,0.8258328657682902,0.9843452897254689,0,0,0,1
1.733662125337341,-1.04791928423171,-3.5068321802745315,0,0,0,1
1.733662125337341,-1.04791928423171,-3.5068321802745315,0,0,0,1
1.919465525337341,-0.8468579842317099,-1.7988206802745312,0,0,0,1
-0.3003239446626591,-0.45073958423170984,0.3034018597254688,0,0,0,1
-2.860134574662659,-0.03190650423170987,0.13801431972546876,0,0,0,1
-1.890870074662659,1.05882761576829,3.8338439197254686,0,0,0,1
-1.452777374662659,1.03854251576829,0.7363080697254688,0,0,0,1
0.7910065853373409,1.01028991576829,-0.8662621802745312,0,0,0,1
4.187887725337341,0.6752899157682901,-1.4011387802745312,0,0,0,1
4.3666837253373405,-0.25053991423170985,-2.3598570802745313,0,0,0,1
4.3666837253373405,-0.25053991423170985,-2.3598570802745313,0,0,0,1
-0.12183044466265912,-1.58530568423171,0.42038925972546876,0,0,0,1
-5.430818574662659,-0.46828396423170987,1.3786573197254688,0,0,0,1
-3.2910170746626592,0.7058399157682902,4.202361819725469,0,0,0,1
-1.757523974662659,0.7554576557682902,1.546404719725469,0,0,0,1
-1.757523974662659,0.7554576557682902,1.546404719725469,0,0,0,1
5.442836325337341,-0.9113173342317099,-4.008796680274531,0,0,0,1
3.3652197253373406,-0.2587851842317099,-2.7972068802745316,0,0,0,1
3.3652197253373406,-0.2587851842317099,-2.7972068802745316,0,0,0,1
1.229054025337341,0.6413616157682901,1.1709680197254688,0,0,0,1
-3.357171974662659,0.39253004576829015,0.7250630497254689,0,0,0,1
-5.249641874662659,0.7556990557682901,1.536877519725469,0,0,0,1
-2.128063674662659,-0.10203773923170988,1.0346732197254689,0,0,0,1
-2.128063674662659,-0.10203773923170988,1.0346732197254689,0,0,0,1
1.337788125337341,-0.9699598342317098,-1.804987780274531,0,0,0,1
1.337788125337341,-0.9699598342317098,-1.804987780274531,0,0,0,1
6.0597947253373405,-0.18194481423170988,-1.0858938802745313,0,0,0,1
3.270163025337341,0.9307533657682902,-3.3256058802745314,0,0,0,1
3.270163025337341,0.9307533657682902,-3.3256058802745314,0,0,0,1
-1.406609974662659,0.8027726557682902,1.0574158197254688,0,0,0,1
-4.03948587466266,-0.21060682423170987,0.029507159725468777,0,0,0,1
1.883989825337341,-1.4735909842317099,-0.3040876802745312,0,0,0,1
0.09425117533734088,-0.32146348423170984,-1.9076393802745313,0,0,0,1
-0.1661515046626591,0.47000988576829017,1.7309557197254688,0,0,0,1
-0.1661515046626591,0.47000988576829017,1.7309557197254688,0,0,0,1
-2.445489274662659,0.39353014576829015,-0.7921931802745312,0,0,0,1
-2.445489274662659,0.39353014576829015,-0.7921931802745312,0,0,0,1
-0.07361839466265911,0.6103249157682902,1.1044318197254688,0,0,0,1
2.318021325337341,-0.32981686423170986,-3.4652638802745312,0,0,0,1
2.2389541253373406,0.30363096576829013,-1.180868180274531,0,0,0,1
2.2389541253373406,0.30363096576829013,-1.180868180274531,0,0,0,1
-2.445710674662659,-0.1573288442317099,-0.13205409027453122,0,0,0,1
-0.6152462746626591,0.2164363857682901,-0.8747499802745312,0,0,0,1
2.0393243253373408,0.09429031576829013,-0.29494110027453124,0,0,0,1
2.0393243253373408,0.09429031576829013,-0.29494110027453124,0,0,0,1
2.121452725337341,-0.32756208423170985,-1.6635020802745313,0,0,0,1
2.121452725337341,-0.32756208423170985,-1.6635020802745313,0,0,0,1
-0.7301411746626592,0.01269835576829013,1.4912667197254688,0,0,0,1
-0.7301411746626592,0.01269835576829013,1.4912667197254688,0,0,0,1
-1.349367574662659,-0.9080034342317098,0.047769976725468774,0,0,0,1
-1.349367574662659,-0.9080034342317098,0.047769976725468774,0,0,0,1
0.6211075953373408,-0.5835268342317098,-1.558397480274531,0,0,0,1
0.4295897653373409,0.5297766557682901,0.3931610197254688,0,0,0,1
-1.187756074662659,1.60237221576829,-0.5167343802745312,0,0,0,1
-0.2462286746626591,1.25678521576829,-1.315695080274531,0,0,0,1
0.5712218253373409,0.2244434557682901,-1.3901731802745312,0,0,0,1
1.140357525337341,-0.17474348423170988,1.0739450197254687,0,0,0,1
1.591917525337341,-0.8209128842317098,-0.4202783102745312,0,0,0,1
1.591917525337341,-0.8209128842317098,-0.4202783102745312,0,0,0,1
-1.506570274662659,0.14333461576829012,-2.9394338802745312,0,0,0,1
-0.5493263746626591,0.9000806157682901,2.3789000197254686,0,0,0,1
-0.8268666146626591,-0.19731013423170987,-0.6799077802745311,0,0,0,1
-0.8268666146626591,-0.19731013423170987,-0.6799077802745311,0,0,0,1
1.119197425337341,-0.6163407342317099,-1.2007383802745313,0,0,0,1
2.331320325337341,-0.07967013423170986,-0.39182618027453125,0,0,0,1
-0.5614819346626592,0.29435198576829014,-2.2724750802745315,0,0,0,1
-0.6793379746626591,0.5301794157682902,1.3292833197254688,0,0,0,1
-0.6793379746626591,0.5301794157682902,1.3292833197254688,0,0,0,1
-0.6793379746626591,0.5301794157682902,1.3292833197254688,0,0,0,1
0.7540040253373409,-0.5455296842317099,2.8469331197254686,0,0,0,1
1.086350925337341,0.6465755157682902,-2.1278994802745315,0,0,0,1
1.726314125337341,1.07563911576829,0.41947563972546875,0,0,0,1
-2.3416838746626594,0.013587998768290128,-0.7381033802745312,0,0,0,1
-2.5817908746626594,-0.7288500842317098,0.5416588197254688,0,0,0,1
-2.5817908746626594,-0.7288500842317098,0.5416588197254688,0,0,0,1
-0.013385279662659105,-1.7546196842317099,2.203328819725469,0,0,0,1
-0.013385279662659105,-1.7546196842317099,2.203328819725469,0,0,0,1
0.12927009533734088,-1.80372448423171,-1.1072417802745311,0,0,0,1
-2.5542788746626592,1.5573133157682901,-0.5168348802745312,0,0,0,1
-2.5542788746626592,1.5573133157682901,-0.5168348802745312,0,0,0,1
-2.338478074662659,2.7136249157682903,4.529584619725469,0,0,0,1
-0.3043227046626591,1.19720481576829,2.8580806197254685,0,0,0,1
3.2229199253373406,-2.0566558842317098,-1.312984280274531,0,0,0,1
3.2229199253373406,-2.0566558842317098,-1.312984280274531,0,0,0,1
4.38255572533734,-2.56651408423171,-4.028727680274532,0,0,0,1
1.872773625337341,-0.6607457242317099,-1.9400446802745313,0,0,0,1
-6.3234057746626595,2.54055171576829,2.996106119725469,0,0,0,1
-6.068768974662659,1.70587991576829,3.9754393197254685,0,0,0,1
-2.314617174662659,0.01984092176829013,3.2440211197254687,0,0,0,1
2.201729325337341,-0.9564723142317099,-0.4368150502745312,0,0,0,1
8.047901725337342,-1.33908748423171,-2.556811880274531,0,0,0,1
1.114050425337341,0.35205774576829013,-1.7520319802745312,0,0,0,1
-1.962065174662659,0.3966780757682901,2.230883819725469,0,0,0,1
-4.574893974662659,0.26099477576829017,3.2249283197254686,0,0,0,1
0.10374118533734089,-0.40923790423170986,1.9147417197254688,0,0,0,1
0.10374118533734089,-0.40923790423170986,1.9147417197254688,0,0,0,1
6.429267425337341,1.20688331576829,0.5106557897254689,0,0,0,1
-0.16970203466265912,-1.39848508423171,0.055948613725468783,0,0,0,1
-0.3604035246626591,-1.71992888423171,3.1282875197254687,0,0,0,1
-3.3617457746626593,-1.29865728423171,0.14677628972546877,0,0,0,1
-3.6831412746626593,0.04355029576829013,-0.8803087802745312,0,0,0,1
-0.7617611746626591,1.62845861576829,2.0785813197254686,0,0,0,1
-0.2573990746626591,-1.50047358423171,-5.844783680274531,0,0,0,1
4.1700511253373405,-2.01406928423171,-1.2817409802745312,0,0,0,1
3.933226125337341,-2.30891078423171,0.9568698697254688,0,0,0,1
3.933226125337341,-2.30891078423171,0.9568698697254688,0,0,0,1
0.5507140253373409,-1.00538098423171,0.15178676972546878,0,0,0,1
-2.988066274662659,-0.003711510731709872,-3.5071494802745313,0,0,0,1
1.108411325337341,-0.3569319342317099,1.8178181197254688,0,0,0,1
1.108411325337341,-0.3569319342317099,1.8178181197254688,0,0,0,1
1.108411325337341,-0.3569319342317099,1.8178181197254688,0,0,0,1
1.431197625337341,-0.32715962423170986,-0.41038468027453123,0,0,0,1
-2.862050974662659,0.5672103157682902,-2.6929433802745315,0,0,0,1
-1.223261374662659,1.1046089157682901,-1.4928374802745312,0,0,0,1
0.9150700753373409,0.28582819576829016,1.366449519725469,0,0,0,1
-0.3194994746626591,-0.9792057842317099,-0.9922821802745312,0,0,0,1
0.39306402533734086,-0.5325658842317098,-1.3499282802745312,0,0,0,1
-0.024338229662659104,1.15557311576829,-0.43204238027453123,0,0,0,1
-0.4454922546626591,0.8625408557682901,-0.30906662027453125,0,0,0,1
-1.889097174662659,-0.7375328842317098,-2.1066484802745316,0,0,0,1
-1.889097174662659,-0.7375328842317098,-2.1066484802745316,0,0,0,1
0.7780595253373409,-0.25650934423170985,0.5881131197254689,0,0,0,1
0.7780595253373409,-0.25650934423170985,0.5881131197254689,0,0,0,1
1.050331625337341,0.3796223557682901,-0.8682453802745311,0,0,0,1
0.8066659253373409,0.34675525576829014,-1.329053880274531,0,0,0,1
-0.2740511746626591,-0.20567230423170987,-2.0651824802745313,0,0,0,1
0.5359025253373408,-0.2658672442317099,1.6693413197254687,0,0,0,1
-1.076713974662659,-1.37539098423171,1.1904027197254687,0,0,0,1
-2.8683480746626593,-0.9471211242317099,0.39089014972546876,0,0,0,1
-1.900734374662659,0.2802281857682901,2.2166128197254684,0,0,0,1
-0.8537440146626591,0.7235257857682902,-0.9158879802745312,0,0,0,1
-0.8537440146626591,0.7235257857682902,-0.9158879802745312,0,0,0,1
1.470078925337341,0.8209147157682901,-1.6840800802745313,0,0,0,1
1.031235225337341,-0.5219687842317099,-0.6961457802745312,0,0,0,1
-0.5028242946626591,-1.04064048423171,-1.4856654802745313,0,0,0,1
-1.648004074662659,-0.29207458423170984,0.11424764972546878,0,0,0,1
-1.648004074662659,-0.29207458423170984,0.11424764972546878,0,0,0,1
-2.959555574662659,0.8868356557682902,1.1328816197254687,0,0,0,1
-0.1292757846626591,0.7115449157682902,-1.3259458802745312,0,0,0,1
-1.713932474662659,0.5468336157682901,-0.7317279802745311,0,0,0,1
-1.713932474662659,0.5468336157682901,-0.7317279802745311,0,0,0,1
-1.713932474662659,0.5468336157682901,-0.7317279802745311,0,0,0,1
-0.7386812746626591,1.0183584157682901,-1.2295215802745312,0,0,0,1
-1.414811574662659,0.8826414557682901,-2.9728329802745312,0,0,0,1
-0.04317615766265911,1.62622981576829,4.225799719725469,0,0,0,1
-0.04317615766265911,1.62622981576829,4.225799719725469,0,0,0,1
1.251595025337341,-0.4720421242317099,1.4075982197254688,0,0,0,1
3.1530747253373406,-2.32540678423171,-1.1762533802745312,0,0,0,1
3.6079621253373406,-2.90713208423171,-4.418118280274531,0,0,0,1
3.2867397253373407,-1.8211504842317099,-2.464297080274531,0,0,0,1
3.2867397253373407,-1.8211504842317099,-2.464297080274531,0,0,0,1
-4.908175974662659,1.99778061576829,0.7476244897254688,0,0,0,1
-4.908175974662659,1.99778061576829,0.7476244897254688,0,0,0,1
-4.656955274662659,1.78961421576829,2.5180675197254687,0,0,0,1
-4.656955274662659,1.78961421576829,2.5180675197254687,0,0,0,1
-2.1830229746626593,0.04018169976829013,2.9241895197254686,0,0,0,1
0.039507405337340894,-0.9915929842317098,-0.46520296027453123,0,0,0,1
0.039507405337340894,-0.9915929842317098,-0.46520296027453123,0,0,0,1
5.986609725337341,-1.46893318423171,-0.17207864027453124,0,0,0,1
0.2863831653373409,0.08533922576829013,-2.2138693802745313,0,0,0,1
-1.458333474662659,0.9223530157682901,2.8238153197254685,0,0,0,1
-4.261200274662659,0.6772535657682901,1.2836439197254688,0,0,0,1
-3.7738146746626593,0.48731931576829013,0.5536544197254688,0,0,0,1
-3.7738146746626593,0.48731931576829013,0.5536544197254688,0,0,0,1
-0.4219441246626591,0.030167668768290128,2.4201555197254687,0,0,0,1
2.234833225337341,-0.1737392842317099,-3.2705128802745316,0,0,0,1
2.234833225337341,-0.1737392842317099,-3.2705128802745316,0,0,0,1
2.827129825337341,-0.41359198423170984,0.17919912972546878,0,0,0,1
-0.5634016746626591,0.11289885976829013,-1.0407834802745313,0,0,0,1
-1.407770574662659,0.8444192557682901,1.2331113197254688,0,0,0,1
-1.727710274662659,1.16642561576829,0.4753360397254688,0,0,0,1
-1.559761474662659,-0.03594379923170987,-1.6249744802745312,0,0,0,1
2.336400525337341,0.2727641357682901,3.3428518197254684,0,0,0,1
-0.4721369546626591,0.47804324576829016,1.6189315197254688,0,0,0,1
-0.15213535466265912,0.7855941157682902,-2.5688762802745315,0,0,0,1
2.763631325337341,0.35984386576829014,0.030060079725468775,0,0,0,1
1.753101825337341,-0.5132205842317099,-1.149003580274531,0,0,0,1
-0.1606659746626591,-0.7145813542317099,1.501559419725469,0,0,0,1
-1.059544074662659,-0.07870568023170987,0.5681165697254689,0,0,0,1
-1.059544074662659,-0.07870568023170987,0.5681165697254689,0,0,0,1
-1.731186374662659,-0.12521929423170988,-2.935837680274531,0,0,0,1
0.1688304153373409,-0.14786220423170987,1.8975094197254687,0,0,0,1
0.6289735253373409,-0.18339295423170987,0.4521772597254688,0,0,0,1
2.0417714253373407,-0.3633260542317099,-0.3455074802745312,0,0,0,1
1.858669725337341,-0.49518544423170985,-1.4346826802745312,0,0,0,1
0.04062415733734089,0.08103744576829013,-0.033191533274531226,0,0,0,1
-1.264898774662659,0.8409527757682902,1.108143019725469,0,0,0,1
-0.3886113046626591,0.6712815157682901,-0.14511231027453123,0,0,0,1
-0.3886113046626591,0.6712815157682901,-0.14511231027453123,0,0,0,1
0.8030677253373409,-0.04727563623170987,-0.6544740802745311,0,0,0,1
1.097695825337341,-1.17372438423171,-0.21494046027453123,0,0,0,1
1.097695825337341,-1.17372438423171,-0.21494046027453123,0,0,0,1
-0.6230511746626591,-1.01885798423171,-0.8140537502745312,0,0,0,1
-0.7724690246626591,0.5824374157682901,2.0507773197254684,0,0,0,1
-1.016779374662659,1.51452951576829,1.9319171197254688,0,0,0,1
-1.417355074662659,0.3765910157682901,-2.7131910802745316,0,0,0,1
2.038627125337341,-0.5355592142317098,0.8150771197254688,0,0,0,1
2.038627125337341,-0.5355592142317098,0.8150771197254688,0,0,0,1
-0.28281067466265913,-1.42678738423171,-1.0853221802745312,0,0,0,1
0.10133220533734089,0.8624739857682902,-1.2306654802745312,0,0,0,1
0.10133220533734089,0.8624739857682902,-1.2306654802745312,0,0,0,1
0.10133220533734089,0.8624739857682902,-1.2306654802745312,0,0,0,1
1.709204225337341,0.14447851576829013,-1.0536930802745312,0,0,0,1
-0.3682331746626591,-1.21868478423171,1.7890449197254688,0,0,0,1
-0.3682331746626591,-1.21868478423171,1.7890449197254688,0,0,0,1
-0.9815020446626591,0.5457414157682902,0.3122912597254688,0,0,0,1
0.8040595253373409,1.54070781576829,1.3487457197254689,0,0,0,1
0.1507592353373409,0.28356464576829016,-1.6524767802745313,0,0,0,1
0.5448756253373409,0.10356083076829013,-0.08644852027453123,0,0,0,1
0.20433856533734088,0.6616825157682902,-0.3416075402745312,0,0,0,1
0.20433856533734088,0.6616825157682902,-0.3416075402745312,0,0,0,1
-1.611814974662659,-0.47644884423170986,-0.010853441074531225,0,0,0,1
-0.9009346746626591,-1.17194568423171,1.063401919725469,0,0,0,1
-0.9009346746626591,-1.17194568423171,1.063401919725469,0,0,0,1
0.8070931553373409,-0.33624748423170986,2.1843349197254684,0,0,0,1
2.597429725337341,0.14802657576829012,-0.32782802027453123,0,0,0,1
0.25187827533734086,0.6515390157682901,-2.1264240802745316,0,0,0,1
-0.0011944609626591057,1.65199231576829,1.990271319725469,0,0,0,1
-2.7193479746626594,0.38288747576829013,-1.8979134802745312,0,0,0,1
-2.7193479746626594,0.38288747576829013,-1.8979134802745312,0,0,0,1
-0.27156207466265914,-1.17284208423171,3.5242736197254687,0,0,0,1
-0.27156207466265914,-1.17284208423171,3.5242736197254687,0,0,0,1
0.6142897753373409,1.5694368290128553e-05,1.1281803197254687,0,0,0,1
2.9174647253373407,-0.19956491423170988,-0.24509242027453124,0,0,0,1
2.9174647253373407,-0.19956491423170988,-0.24509242027453124,0,0,0,1
2.9174647253373407,-0.19956491423170988,-0.24509242027453124,0,0,0,1
-2.871241574662659,-0.6612699842317099,0.6627962897254688,0,0,0,1
-2.9660372746626593,0.07169736576829012,2.8716928197254687,0,0,0,1
-2.9660372746626593,0.07169736576829012,2.8716928197254687,0,0,0,1
0.2153926053373409,0.5950593157682902,-2.1291744802745316,0,0,0,1
2.4378552253373407,0.19092551576829012,-0.7246160802745312,0,0,0,1
2.0532947253373406,0.25257501576829017,0.4787110697254688,0,0,0,1
-0.5797514746626591,0.12595882576829012,-0.8892134802745312,0,0,0,1
-0.9247402746626591,0.7249482157682902,1.0089093197254688,0,0,0,1
-0.9247402746626591,0.7249482157682902,1.0089093197254688,0,0,0,1
-0.9785046446626591,-0.9404381842317099,-0.19652805027453124,0,0,0,1
0.4498877653373409,-0.30856333423170984,1.061480619725469,0,0,0,1
1.214039325337341,0.14048770576829012,-0.8911352802745311,0,0,0,1
1.214039325337341,0.14048770576829012,-0.8911352802745311,0,0,0,1
1.400268125337341,-0.21174606423170989,-2.8516042802745316,0,0,0,1
0.7724976653373409,1.28575871576829,1.4633276197254688,0,0,0,1
0.7724976653373409,1.28575871576829,1.4633276197254688,0,0,0,1
-0.7882237246626591,-1.27790258423171,0.37251921972546875,0,0,0,1
-0.7882237246626591,-1.27790258423171,0.37251921972546875,0,0,0,1
0.012345807337340895,-0.8766396842317099,3.2552087197254687,0,0,0,1
-2.3298010746626594,0.2198690057682901,2.0480051197254685,0,0,0,1
-2.3298010746626594,0.2198690057682901,2.0480051197254685,0,0,0,1
1.676979525337341,0.7287788557682902,-0.20698804027453124,0,0,0,1
1.890339425337341,0.46923508576829015,-2.0656086802745315,0,0,0,1
1.890339425337341,0.46923508576829015,-2.0656086802745315,0,0,0,1
0.7515912253373409,-1.6304064842317099,0.6352373197254688,0,0,0,1
0.7515912253373409,-1.6304064842317099,0.6352373197254688,0,0,0,1
-0.46163317466265913,-0.6842016442317098,1.7302532197254687,0,0,0,1
-1.887464974662659,1.06648471576829,-0.9255899502745312,0,0,0,1
1.817797225337341,0.6813925657682901,-0.4955981102745312,0,0,0,1
1.817797225337341,0.6813925657682901,-0.4955981102745312,0,0,0,1
-0.8221239746626591,-1.09691798423171,1.6071686197254689,0,0,0,1
-0.8221239746626591,-1.09691798423171,1.6071686197254689,0,0,0,1
-0.2735228346626591,-0.40271024423170987,2.7561416197254687,0,0,0,1
-0.2735228346626591,-0.40271024423170987,2.7561416197254687,0,0,0,1
0.41830588533734087,0.5556367857682901,-2.1043524802745313,0,0,0,1
2.023904325337341,0.5691705157682901,-0.6054823802745312,0,0,0,1
1.084379725337341,0.41280651576829014,0.5630991197254688,0,0,0,1
-1.151429674662659,-0.020313103231709873,1.7279851197254688,0,0,0,1
-1.151429674662659,-0.020313103231709873,1.7279851197254688,0,0,0,1
1.854773025337341,-0.29205208423170986,1.0960117197254688,0,0,0,1
2.321830325337341,-0.8763208242317099,-0.3062714602745312,0,0,0,1
2.321830325337341,-0.8763208242317099,-0.3062714602745312,0,0,0,1
1.106896925337341,-0.6589204842317099,-2.5949749802745314,0,0,0,1
1.010904825337341,0.04654217876829013,-0.36458916027453125,0,0,0,1
-0.9912819746626591,0.42976875576829016,1.4641939197254688,0,0,0,1
0.3527636653373409,0.3237826757682901,-0.5383284402745312,0,0,0,1
0.3527636653373409,0.3237826757682901,-0.5383284402745312,0,0,0,1
1.429395225337341,-0.38758398423170987,-2.4120454802745313,0,0,0,1
1.404243025337341,-0.33710263423170983,-0.23983058027453122,0,0,0,1
-0.7872271346626591,1.02298331576829,1.2695598197254687,0,0,0,1
-0.7872271346626591,1.02298331576829,1.2695598197254687,0,0,0,1
-1.490208174662659,0.8619802757682902,0.7263928197254689,0,0,0,1
-1.490208174662659,0.8619802757682902,0.7263928197254689,0,0,0,1
-0.8519654146626591,0.3748301157682901,-1.656415980274531,0,0,0,1
-0.006738169762659106,0.016529607768290128,1.2527263197254688,0,0,0,1
-1.035221574662659,0.45676459576829015,-0.32990191027453125,0,0,0,1
0.6966748253373409,0.8429485757682902,1.3417717197254688,0,0,0,1
0.6966748253373409,0.8429485757682902,1.3417717197254688,0,0,0,1
0.6966748253373409,0.8429485757682902,1.3417717197254688,0,0,0,1
0.2536034753373409,-0.08565417423170987,2.5809481197254684,0,0,0,1
-0.5756268346626591,-0.27089588423170985,0.7128314197254688,0,0,0,1
0.7962355753373409,-0.6549793842317099,-0.7607020802745311,0,0,0,1
