acc_x,acc_y,acc_z,gyro_x,gyro_y,gyro_z,label
1.862198325337341,1.87516811576829,-1.3797389802745312,0,0,0,1
1.862198325337341,1.87516811576829,-1.3797389802745312,0,0,0,1
1.862198325337341,1.87516811576829,-1.3797389802745312,0,0,0,1
1.862198325337341,1.87516811576829,-1.3797389802745312,0,0,0,1
-2.204206974662659,0.7709772757682901,-1.0295447802745312,0,0,0,1
2.5152125253373407,-0.013332155231709872,-2.3017308802745315,0,0,0,1
2.5152125253373407,-0.013332155231709872,-2.3017308802745315,0,0,0,1
2.5152125253373407,-0.013332155231709872,-2.3017308802745315,0,0,0,1
2.1248307253373406,1.38766931576829,-1.9347161802745312,0,0,0,1
2.1248307253373406,1.38766931576829,-1.9347161802745312,0,0,0,1
-1.756311874662659,-0.3707617342317099,2.0693507197254686,0,0,0,1
-1.756311874662659,-0.3707617342317099,2.0693507197254686,0,0,0,1
-1.756311874662659,-0.3707617342317099,2.0693507197254686,0,0,0,1
-1.981181174662659,-0.48601688423170986,0.7582341697254689,0,0,0,1
-0.014333231662659107,0.2587148457682901,1.0308129197254687,0,0,0,1
1.430470925337341,0.8862446757682901,-1.1234505802745312,0,0,0,1
2.0479637253373406,1.3439373157682901,-1.7655999802745312,0,0,0,1
1.414763925337341,0.40218107576829015,0.039099177725468774,0,0,0,1
1.414763925337341,0.40218107576829015,0.039099177725468774,0,0,0,1
-1.241364974662659,-0.6567773842317098,2.5020885197254685,0,0,0,1
-1.362240274662659,-0.2452514442317099,1.104424819725469,0,0,0,1
-0.7121834746626591,0.07187389176829014,-0.20669989027453123,0,0,0,1
-0.7121834746626591,0.07187389176829014,-0.20669989027453123,0,0,0,1
0.034158245337340895,0.6031990157682902,-0.6641292302745312,0,0,0,1
0.034158245337340895,0.6031990157682902,-0.6641292302745312,0,0,0,1
0.08950378133734088,-0.6851076842317099,2.3701560197254685,0,0,0,1
-0.6894974746626591,-0.6409695842317099,1.302501719725469,0,0,0,1
-0.5063910346626591,0.11888201576829013,-1.293929380274531,0,0,0,1
-1.094157674662659,-0.19663530423170988,0.15387120972546878,0,0,0,1
-1.020642774662659,-0.38471688423170985,2.1712095197254686,0,0,0,1
-1.397954474662659,-0.6379154842317099,1.9045178197254689,0,0,0,1
-1.096538974662659,-0.36901603423170987,0.8158095197254688,0,0,0,1
-1.096538974662659,-0.36901603423170987,0.8158095197254688,0,0,0,1
1.618692925337341,0.6200455657682902,-2.1569051802745314,0,0,0,1
1.618692925337341,0.6200455657682902,-2.1569051802745314,0,0,0,1
1.692497725337341,1.17855591576829,-0.7069138802745312,0,0,0,1
0.8927731653373409,1.12463441576829,0.40626656972546876,0,0,0,1
-0.8272518746626591,0.35912899576829016,0.34458496972546876,0,0,0,1
0.4970574253373409,-0.5043921842317098,-0.0044325009745312255,0,0,0,1
1.124273825337341,-0.09165984423170986,0.26138171972546875,0,0,0,1
1.124273825337341,-0.09165984423170986,0.26138171972546875,0,0,0,1
0.6873183253373409,0.16679674576829012,-0.8356524802745312,0,0,0,1
0.4299283253373409,0.3968762357682901,-0.8867770802745312,0,0,0,1
-0.049846154662659105,-0.04681385723170987,0.4832434597254688,0,0,0,1
-0.8218321746626591,-0.21821324423170987,1.0197813197254688,0,0,0,1
-0.8912091046626591,-1.38956178423171,-2.3183121802745315,0,0,0,1
0.2567496453373409,-0.25948835423170985,1.091124619725469,0,0,0,1
0.2567496453373409,-0.25948835423170985,1.091124619725469,0,0,0,1
1.942649425337341,1.1616942157682901,1.0496329197254688,0,0,0,1
1.942649425337341,1.1616942157682901,1.0496329197254688,0,0,0,1
-1.535190074662659,1.2187076157682901,-5.1627752802745315,0,0,0,1
-4.1638102746626595,-0.43102420423170984,3.9057221197254686,0,0,0,1
-4.1638102746626595,-0.43102420423170984,3.9057221197254686,0,0,0,1
-0.5124211146626592,-0.8460434842317098,2.2597833197254684,0,0,0,1
4.861455425337341,-0.01419257023170987,-6.080091680274531,0,0,0,1
4.898345525337341,0.24807040576829012,-4.693506680274531,0,0,0,1
-2.7721113746626593,0.12023197576829013,2.1540541197254686,0,0,0,1
-2.7721113746626593,0.12023197576829013,2.1540541197254686,0,0,0,1
-2.7721113746626593,0.12023197576829013,2.1540541197254686,0,0,0,1
-2.0392269746626592,-0.7310949342317099,0.7222935797254688,0,0,0,1
-2.0392269746626592,-0.7310949342317099,0.7222935797254688,0,0,0,1
0.13867904533734088,0.7411035157682901,-0.13343302027453122,0,0,0,1
3.063762225337341,0.8480915157682901,-0.7584026202745312,0,0,0,1
3.785490525337341,-0.21090758423170988,-3.0427836802745314,0,0,0,1
1.225161125337341,-0.7103973442317099,0.47596381972546875,0,0,0,1
-0.6637806746626591,-0.7017261842317098,0.14775183972546876,0,0,0,1
-0.6637806746626591,-0.7017261842317098,0.14775183972546876,0,0,0,1
-2.580911574662659,0.27310695576829014,2.2900385197254685,0,0,0,1
-1.793450774662659,0.8606455557682902,2.3270233197254684,0,0,0,1
0.2213997953373409,0.2112972657682901,-1.6905958802745311,0,0,0,1
2.571918025337341,-0.6569971842317098,-2.9280374802745315,0,0,0,1
2.2606197253373406,-0.6401936242317099,-1.918924080274531,0,0,0,1
0.9325366253373409,0.6173868157682901,2.5181505197254688,0,0,0,1
-0.6539320746626591,0.8431297757682902,2.7429091197254687,0,0,0,1
-1.232808574662659,-0.17396110423170988,0.4849555197254688,0,0,0,1
1.699101925337341,-1.08113418423171,2.3943788197254685,0,0,0,1
-0.0553355046626591,-0.1815131442317099,-2.3930490802745314,0,0,0,1
-0.0553355046626591,-0.1815131442317099,-2.3930490802745314,0,0,0,1
1.312984025337341,1.07498361576829,2.683691319725469,0,0,0,1
3.992125025337341,2.6073949157682903,2.6614633197254687,0,0,0,1
0.05585242933734089,2.0352469157682904,2.0867636197254686,0,0,0,1
0.9650426253373409,-2.5285186842317096,3.5324593197254686,0,0,0,1
0.9665675253373409,-2.5030993842317097,3.5131402197254684,0,0,0,1
0.4655890653373409,1.31423341576829,0.6872270197254688,0,0,0,1
3.8909927253373406,0.7829342657682902,-0.029002280274531226,0,0,0,1
2.662023125337341,-0.005077254231709872,-0.7410113802745312,0,0,0,1
-1.423110474662659,-0.6508640842317098,-2.9091899802745314,0,0,0,1
-1.423110474662659,-0.6508640842317098,-2.9091899802745314,0,0,0,1
-3.1706261746626594,0.8576999157682902,0.055411429725468773,0,0,0,1
-3.1706261746626594,0.8576999157682902,0.055411429725468773,0,0,0,1
-0.6246552346626592,0.6225672157682901,-0.31636381027453125,0,0,0,1
3.041609325337341,0.06325686576829012,1.1816997197254688,0,0,0,1
2.059673725337341,0.0010844875682901286,0.9639450197254689,0,0,0,1
1.373096925337341,-0.6818381342317098,-0.4408850802745312,0,0,0,1
1.814611925337341,-0.6183157842317099,1.2627484197254688,0,0,0,1
-1.780581974662659,-0.06675599423170987,-0.23186764027453122,0,0,0,1
-0.30077980466265913,0.10706386576829013,1.2049310197254688,0,0,0,1
-0.3699068746626591,-0.8157398542317098,1.5961908197254688,0,0,0,1
-0.3699068746626591,-0.8157398542317098,1.5961908197254688,0,0,0,1
-1.477632974662659,-0.8223834842317098,0.028949527725468775,0,0,0,1
1.179378025337341,-0.5932684842317099,0.7742447197254688,0,0,0,1
3.5052857253373406,-0.27357826423170983,1.6818810197254688,0,0,0,1
-0.1804318246626591,1.26251691576829,-0.7194553302745311,0,0,0,1
-1.099088174662659,1.59914661576829,1.0023498197254688,0,0,0,1
-3.304525874662659,1.35280281576829,-0.5254887802745312,0,0,0,1
-3.304525874662659,1.35280281576829,-0.5254887802745312,0,0,0,1
-2.4125914746626593,0.8281683557682902,1.3613696197254688,0,0,0,1
1.293851425337341,-0.29794083423170986,2.299440119725469,0,0,0,1
3.108505725337341,-1.57419728423171,0.31836798972546876,0,0,0,1
2.973578025337341,-1.9994484842317102,-2.1528842802745314,0,0,0,1
3.5655560253373406,-1.10966408423171,-0.4589801402745312,0,0,0,1
2.040970325337341,0.6009041857682902,1.3443417197254688,0,0,0,1
-2.1344612746626592,0.5180639857682902,3.5402793197254687,0,0,0,1
-2.1344612746626592,0.5180639857682902,3.5402793197254687,0,0,0,1
3.695551425337341,-1.96724058423171,-0.8334809802745312,0,0,0,1
3.695551425337341,-1.96724058423171,-0.8334809802745312,0,0,0,1
4.951628225337341,-1.05149248423171,-1.8697447802745313,0,0,0,1
1.577976725337341,0.1904041157682901,-1.985342280274531,0,0,0,1
-1.116807474662659,0.7768915157682902,2.3589603197254685,0,0,0,1
-1.116807474662659,0.7768915157682902,2.3589603197254685,0,0,0,1
-1.116807474662659,0.7768915157682902,2.3589603197254685,0,0,0,1
-1.116807474662659,0.7768915157682902,2.3589603197254685,0,0,0,1
-1.116807474662659,0.7768915157682902,2.3589603197254685,0,0,0,1
-1.295432574662659,-0.05257023423170987,3.3997580197254686,0,0,0,1
-1.295432574662659,-0.05257023423170987,3.3997580197254686,0,0,0,1
0.2824673853373409,-0.04213271723170987,3.0834873197254686,0,0,0,1
0.2824673853373409,-0.04213271723170987,3.0834873197254686,0,0,0,1
2.388726725337341,-0.27997235423170985,-1.839231480274531,0,0,0,1
0.1363034453373409,0.22096437576829012,2.7137181197254687,0,0,0,1
0.1363034453373409,0.22096437576829012,2.7137181197254687,0,0,0,1
-2.541206274662659,0.15204778576829012,1.9780863197254688,0,0,0,1
-2.541206274662659,0.15204778576829012,1.9780863197254688,0,0,0,1
-1.744613674662659,1.42499911576829,2.2024772197254685,0,0,0,1
1.801028725337341,4.01128091576829,5.384877919725469,0,0,0,1
1.801028725337341,4.01128091576829,5.384877919725469,0,0,0,1
1.801028725337341,3.1870451157682904,4.237434319725469,0,0,0,1
4.0521073253373405,2.0175531157682904,0.049013225725468776,0,0,0,1
4.0521073253373405,2.0175531157682904,0.049013225725468776,0,0,0,1
-3.526950774662659,-2.2783060842317098,3.6779057197254685,0,0,0,1
-10.031975274662658,1.07437301576829,5.892716319725468,0,0,0,1
-8.014558274662658,1.68583741576829,8.278832319725469,0,0,0,1
-8.014558274662658,1.68583741576829,8.278832319725469,0,0,0,1
1.386143225337341,-0.04684075423170987,1.3965461197254687,0,0,0,1
6.630737725337341,-0.7684222242317098,-2.7936926802745314,0,0,0,1
11.667337725337342,0.31455541576829016,-1.7818011802745313,0,0,0,1
9.413293725337342,1.12141751576829,-3.5267503802745312,0,0,0,1
1.832067025337341,0.8106417857682902,-4.737404180274531,0,0,0,1
-1.682873674662659,-2.2925912842317095,5.230777319725469,0,0,0,1
-7.314699674662659,-0.7756516142317098,5.925453919725468,0,0,0,1
-7.314699674662659,-0.7756516142317098,5.925453919725468,0,0,0,1
1.584641025337341,-0.8215427242317098,2.876221119725469,0,0,0,1
1.584641025337341,-0.8215427242317098,2.876221119725469,0,0,0,1
3.8102698253373406,-0.9768960842317098,-2.8758132802745315,0,0,0,1
6.501803725337341,-0.6242484242317099,-2.8649322802745316,0,0,0,1
7.152918325337341,0.07016241176829013,-2.8307168802745313,0,0,0,1
7.152918325337341,0.07016241176829013,-2.8307168802745313,0,0,0,1
2.317602725337341,0.05042105876829013,-1.6649808802745312,0,0,0,1
-6.35243657466266,0.27463021576829016,4.875970619725469,0,0,0,1
-5.185680874662659,0.43909801576829016,3.6451480197254686,0,0,0,1
-5.185680874662659,0.43909801576829016,3.6451480197254686,0,0,0,1
-2.7705521746626594,-0.27922560423170983,0.2721755197254688,0,0,0,1
5.906856125337341,0.32368473576829015,-0.3944115902745312,0,0,0,1
5.906856125337341,0.32368473576829015,-0.3944115902745312,0,0,0,1
6.3187632253373405,-0.7223978442317098,-4.1728136802745315,0,0,0,1
1.458722625337341,-0.5847873542317099,0.9587460197254688,0,0,0,1
-7.777240774662659,0.8488800157682902,2.8675274197254685,0,0,0,1
-7.777240774662659,0.8488800157682902,2.8675274197254685,0,0,0,1
-3.1046499746626592,1.01994261576829,4.4373043197254685,0,0,0,1
-0.3667378246626591,1.90825951576829,2.892700319725469,0,0,0,1
-0.3667378246626591,1.90825951576829,2.892700319725469,0,0,0,1
3.961621725337341,2.44889121576829,1.750293419725469,0,0,0,1
3.9788937253373406,-0.48348916423170984,-8.69095168027453,0,0,0,1
4.459851725337341,-1.41473078423171,-6.128222280274532,0,0,0,1
6.07218312533734,-1.6776655842317099,0.6280653197254689,0,0,0,1
-4.523435574662659,0.1584214157682901,2.8534016197254686,0,0,0,1
-4.224348574662659,-0.5621593442317099,2.9666428197254686,0,0,0,1
-4.720925274662659,-0.3848697642317099,0.28607484972546876,0,0,0,1
-4.720925274662659,-0.03018012423170987,0.42705579972546875,0,0,0,1
-2.689789274662659,-0.03018012423170987,0.42705579972546875,0,0,0,1
3.0155740253373406,-0.21965054423170988,0.8738927497254688,0,0,0,1
