acc_x,acc_y,acc_z,gyro_x,gyro_y,gyro_z,label
-0.7429537746626591,-0.5958149242317099,-0.5182672502745311,0,0,0,1
-0.7429537746626591,-0.5958149242317099,-0.5182672502745311,0,0,0,1
-0.4748835446626591,-1.03349828423171,-0.5623186802745311,0,0,0,1
-0.4748835446626591,-1.03349828423171,-0.5623186802745311,0,0,0,1
1.528111025337341,1.53978191576829,-0.049840780274531225,0,0,0,1
1.249260425337341,1.96058921576829,0.06637265972546877,0,0,0,1
0.3071122253373409,1.03787881576829,0.30604239972546876,0,0,0,1
-0.8745245746626591,-0.5223583842317099,-0.13085231027453123,0,0,0,1
-1.552361974662659,-1.5942437842317099,-0.4677868202745312,0,0,0,1
-0.5824808746626591,-0.34333191423170983,-0.04561153027453122,0,0,0,1
-0.5824808746626591,-0.34333191423170983,-0.04561153027453122,0,0,0,1
0.3659901753373409,1.56865001576829,0.3028530197254688,0,0,0,1
0.6654877853373409,0.6994747657682902,-0.05449858427453122,0,0,0,1
0.20918037533734088,-0.43038736423170987,-0.3297320802745312,0,0,0,1
-0.5067038346626591,-0.7310276842317098,-0.5882582402745312,0,0,0,1
-0.9807724746626592,0.07727165576829013,-0.42970898027453125,0,0,0,1
-0.8753742746626592,0.8294177857682902,0.22821511972546876,0,0,0,1
-0.8824276746626591,0.5753471157682901,-0.09225169027453123,0,0,0,1
-0.7961096746626591,-0.1256336942317099,0.21496715972546876,0,0,0,1
-0.007437213062659105,-0.37309895423170986,0.6432606897254688,0,0,0,1
0.8199048253373409,-0.2054300142317099,0.2688846197254688,0,0,0,1
1.579332825337341,0.6586979157682902,-0.11192462027453123,0,0,0,1
1.495913025337341,0.9186266857682901,-0.5338082802745312,0,0,0,1
-1.632383774662659,-1.37262108423171,-0.9231612402745312,0,0,0,1
-1.632383774662659,-1.37262108423171,-0.9231612402745312,0,0,0,1
-2.435118674662659,-1.93599648423171,-0.46919546027453124,0,0,0,1
-1.658806274662659,-0.9481377842317098,0.7445460797254688,0,0,0,1
0.7763056953373408,1.46717001576829,1.1214911197254689,0,0,0,1
0.7763056953373408,1.46717001576829,1.1214911197254689,0,0,0,1
0.3677144253373409,-1.76240558423171,-0.12884656027453123,0,0,0,1
0.3677144253373409,-1.76240558423171,-0.12884656027453123,0,0,0,1
-2.1607742746626593,-1.28746098423171,-0.4462495802745312,0,0,0,1
-1.308722974662659,1.32570431576829,0.31865527972546875,0,0,0,1
0.1353717053373409,1.71443681576829,0.16651585972546876,0,0,0,1
1.424809925337341,1.68779351576829,-0.39325354027453124,0,0,0,1
1.424809925337341,1.68779351576829,-0.39325354027453124,0,0,0,1
1.541781925337341,-0.46428821423170985,-0.42240158027453123,0,0,0,1
-1.005007274662659,-1.0193893842317099,-0.26533505027453125,0,0,0,1
-1.005007274662659,-1.0193893842317099,-0.26533505027453125,0,0,0,1
-1.795675774662659,0.24326448576829013,-0.18511412027453122,0,0,0,1
0.7274756553373409,0.10136796576829013,-0.40313694027453123,0,0,0,1
0.7274756553373409,0.10136796576829013,-0.40313694027453123,0,0,0,1
0.5695071253373409,-0.18428377423170988,0.22625341972546878,0,0,0,1
-1.864470474662659,0.9221743557682901,-0.4499337402745312,0,0,0,1
-1.864470474662659,0.9221743557682901,-0.4499337402745312,0,0,0,1
0.35895110533734087,-0.9820237842317099,-0.29706523027453124,0,0,0,1
0.3218245653373409,-0.8228362842317098,-0.5712933302745312,0,0,0,1
0.3218245653373409,-0.8228362842317098,-0.5712933302745312,0,0,0,1
1.367901325337341,-0.43262581423170987,-0.019758375274531226,0,0,0,1
2.4953132253373407,-0.22223792423170988,0.4932814497254688,0,0,0,1
-0.30698345466265914,0.09106608076829013,-0.11218914527453124,0,0,0,1
-0.30698345466265914,0.09106608076829013,-0.11218914527453124,0,0,0,1
-1.410091874662659,-1.17112058423171,-0.13896427027453123,0,0,0,1
-2.1715992746626593,-0.8419646842317099,0.19237860972546877,0,0,0,1
-0.6618017746626591,-0.28451494423170987,0.26718925972546875,0,0,0,1
2.532349125337341,-0.12521634423170988,0.8103837197254689,0,0,0,1
3.733888125337341,0.3324783157682901,0.39714338972546875,0,0,0,1
2.1725135253373407,-0.012526970231709872,-0.6127166802745312,0,0,0,1
1.904017025337341,-0.9373504842317099,-0.7349726802745312,0,0,0,1
-3.776938374662659,-0.003141563631709871,-0.12185273027453122,0,0,0,1
-0.9171690746626591,-0.7668057542317098,-0.29629716027453123,0,0,0,1
-2.316306074662659,0.2429476557682901,0.27126601972546877,0,0,0,1
1.164826925337341,0.40184645576829015,1.179874819725469,0,0,0,1
1.668457525337341,0.8627648157682901,0.8450362197254688,0,0,0,1
1.756352925337341,0.35293893576829016,0.13494118972546876,0,0,0,1
1.756352925337341,0.35293893576829016,0.13494118972546876,0,0,0,1
1.756352925337341,0.35293893576829016,0.13494118972546876,0,0,0,1
-1.043005474662659,-2.09137808423171,-1.4270247802745313,0,0,0,1
-2.2441696746626594,-1.37168878423171,-1.5597400802745311,0,0,0,1
-0.37912891466265913,-0.08139829023170987,-0.7182307802745311,0,0,0,1
1.490005025337341,1.51552391576829,-0.006433279874531225,0,0,0,1
1.490005025337341,1.51552391576829,-0.006433279874531225,0,0,0,1
-1.682949574662659,-0.7994571142317098,-0.6417189802745312,0,0,0,1
-1.682949574662659,-0.7994571142317098,-0.6417189802745312,0,0,0,1
-2.039564074662659,-0.8285761842317099,-0.7140575402745312,0,0,0,1
1.680302125337341,-0.25515971423170986,-0.30024704027453125,0,0,0,1
1.680302125337341,-0.25515971423170986,-0.30024704027453125,0,0,0,1
1.497649725337341,0.5094365157682902,0.16664799972546876,0,0,0,1
-1.683495974662659,-0.1586136042317099,0.25136419972546875,0,0,0,1
-1.683495974662659,-0.1586136042317099,0.25136419972546875,0,0,0,1
0.10713340533734089,-0.06263713423170987,0.6551273797254689,0,0,0,1
0.8929171753373409,1.24007071576829,0.46607431972546876,0,0,0,1
0.8929171753373409,1.24007071576829,0.46607431972546876,0,0,0,1
1.622941525337341,0.05074198876829013,-0.5178742802745312,0,0,0,1
0.07112647533734089,0.35277811576829016,-0.8695873802745312,0,0,0,1
-0.7752413746626591,1.18438741576829,-1.0498321802745312,0,0,0,1
-0.1417736846626591,1.23173071576829,-0.6052823802745312,0,0,0,1
-1.054047074662659,0.5142926757682902,-0.13612768027453123,0,0,0,1
-0.5164027046626591,-1.08341618423171,0.22281672972546876,0,0,0,1
-0.5164027046626591,-1.08341618423171,0.22281672972546876,0,0,0,1
-0.9581637246626591,-0.8607240842317099,0.06881978972546877,0,0,0,1
1.852299225337341,0.24271856576829012,-0.06784555427453122,0,0,0,1
1.853253825337341,0.24764721576829013,-0.058933050274531225,0,0,0,1
1.853253825337341,0.24764721576829013,-0.058933050274531225,0,0,0,1
1.653972125337341,0.8880204757682901,-1.3419017802745312,0,0,0,1
-0.3779196546626591,0.9327554157682901,-1.0984441802745313,0,0,0,1
-3.5900964746626594,0.8954655157682901,-0.8561516802745311,0,0,0,1
-3.5900964746626594,0.8954655157682901,-0.8561516802745311,0,0,0,1
-2.3328985746626594,-0.7644391842317099,0.8177329197254688,0,0,0,1
-0.13462589466265912,-0.35211548423170985,1.3864262197254689,0,0,0,1
-0.13462589466265912,-0.35211548423170985,1.3864262197254689,0,0,0,1
3.349316125337341,0.6911532157682901,0.5766339597254688,0,0,0,1
3.812272525337341,0.012277800268290128,0.20355673972546878,0,0,0,1
3.812272525337341,0.012277800268290128,0.20355673972546878,0,0,0,1
-0.9006094746626591,-0.45586548423170986,-0.6742443802745312,0,0,0,1
-2.8154577746626592,0.36243708576829015,-0.6333143402745312,0,0,0,1
-2.8154577746626592,0.36243708576829015,-0.6333143402745312,0,0,0,1
-2.184074874662659,1.10956071576829,-0.4962729502745312,0,0,0,1
-0.8373799146626592,-0.45377962423170987,0.18106611972546877,0,0,0,1
0.1362414553373409,-1.33142948423171,0.2785359897254688,0,0,0,1
2.6185269253373407,-0.7485773842317098,0.9250686197254688,0,0,0,1
2.341809725337341,0.31925821576829017,0.4528103497254688,0,0,0,1
2.341809725337341,0.31925821576829017,0.4528103497254688,0,0,0,1
0.4461636753373409,0.33741985576829014,-0.8297494402745311,0,0,0,1
-0.9003796446626591,-0.9345612342317099,-0.7002145802745312,0,0,0,1
-2.6386570746626594,-1.08631058423171,-0.7225535802745312,0,0,0,1
-2.700668774662659,-1.23062658423171,-0.2513070402745312,0,0,0,1
-0.7274346146626591,-0.5773087842317098,0.45729883972546875,0,0,0,1
0.9860177253373409,0.44212961576829013,0.7744408497254688,0,0,0,1
1.583015025337341,1.1165910157682901,0.5371925197254688,0,0,0,1
0.7884993753373409,-0.7417463442317098,0.06436040972546878,0,0,0,1
-0.8635916746626591,0.8217327757682902,-0.7245427802745312,0,0,0,1
-0.8635916746626591,0.8217327757682902,-0.7245427802745312,0,0,0,1
1.471636325337341,0.6832703557682901,-1.1576564802745313,0,0,0,1
-1.605744774662659,-0.6605268542317099,0.3052425397254688,0,0,0,1
-1.753045574662659,0.17501776576829012,1.1828448197254688,0,0,0,1
-1.753045574662659,0.17501776576829012,1.1828448197254688,0,0,0,1
1.100050425337341,-0.33882228423170985,1.2211834197254687,0,0,0,1
1.259202525337341,-1.01279928423171,0.07188268972546877,0,0,0,1
0.6711106253373409,-0.9370631842317099,-1.028912080274531,0,0,0,1
0.6711106253373409,-0.9370631842317099,-1.028912080274531,0,0,0,1
-0.9574084146626591,-0.8243845842317099,-1.0624369802745313,0,0,0,1
-0.9574084146626591,-0.8243845842317099,-1.0624369802745313,0,0,0,1
-0.18101738466265913,0.19902287576829011,-0.7084540402745312,0,0,0,1
1.432253425337341,0.40152173576829014,0.34006891972546877,0,0,0,1
1.432253425337341,0.40152173576829014,0.34006891972546877,0,0,0,1
0.4611544753373409,0.29700453576829017,0.5185026797254688,0,0,0,1
-0.9138140746626591,0.18979297576829013,0.8295802797254688,0,0,0,1
-1.532441574662659,-0.7252587542317098,-0.10619947427453123,0,0,0,1
-1.532441574662659,-0.7252587542317098,-0.10619947427453123,0,0,0,1
1.083619625337341,-0.09348533423170986,-0.11906490027453123,0,0,0,1
1.899725425337341,1.02556571576829,-0.6510467202745311,0,0,0,1
1.591124025337341,0.11076887576829013,-1.2059075802745312,0,0,0,1
1.591124025337341,0.11076887576829013,-1.2059075802745312,0,0,0,1
1.483645025337341,-1.17433298423171,-0.6636516802745311,0,0,0,1
-2.863522474662659,1.30485941576829,0.19446101972546878,0,0,0,1
-1.979224674662659,1.92965961576829,0.8652241497254688,0,0,0,1
-1.979224674662659,1.92965961576829,0.8652241497254688,0,0,0,1
0.5430512553373409,0.14281557576829013,0.21442624972546878,0,0,0,1
0.5430512553373409,0.14281557576829013,0.21442624972546878,0,0,0,1
0.9011807553373409,-1.8366316842317099,-0.5111250802745312,0,0,0,1
0.6330561753373409,-1.02730108423171,-0.6083532302745311,0,0,0,1
-0.0377449846626591,1.94578671576829,-0.6008774402745312,0,0,0,1
0.2745604653373409,1.71152771576829,-0.5721195802745311,0,0,0,1
0.004408375337340895,0.28773285576829016,-0.27797094027453123,0,0,0,1
0.22699500533734088,-1.45083048423171,-0.24682674027453122,0,0,0,1
0.9575171653373409,-1.70317008423171,0.3485786897254688,0,0,0,1
0.37596274533734086,2.1660740157682903,0.8892220197254688,0,0,0,1
-0.5023789246626591,1.06498981576829,0.7150812197254688,0,0,0,1
1.534850625337341,0.32986374576829014,-0.19840673027453123,0,0,0,1
1.534850625337341,0.32986374576829014,-0.19840673027453123,0,0,0,1
0.8876862653373409,1.55318091576829,-0.6003160202745311,0,0,0,1
0.8876862653373409,1.55318091576829,-0.6003160202745311,0,0,0,1
-0.2711996746626591,-0.027214270231709872,-0.6017676802745312,0,0,0,1
-1.617203274662659,0.7052451557682902,0.2584576897254688,0,0,0,1
1.267954325337341,0.8823135157682901,0.5489425197254688,0,0,0,1
1.473609425337341,0.1805931957682901,-0.020641894274531225,0,0,0,1
0.4506182853373409,-0.8515712842317098,-1.0221064802745312,0,0,0,1
-0.053523524662659104,-0.7460037242317099,-0.18808136027453123,0,0,0,1
-1.729628974662659,0.9484263857682902,-0.4731419402745312,0,0,0,1
-2.538260474662659,2.24664861576829,-0.43144450027453124,0,0,0,1
