acc_x,acc_y,acc_z,gyro_x,gyro_y,gyro_z,label
1.597192325337341,-0.6043244442317098,-0.32495800027453126,0,0,0,1
0.06187965133734089,0.30248327576829015,-0.10619080027453123,0,0,0,1
-0.6077732746626591,0.26220913576829014,0.38555931972546875,0,0,0,1
1.529206725337341,0.26526616576829015,-0.40922266027453125,0,0,0,1
1.529206725337341,0.26526616576829015,-0.40922266027453125,0,0,0,1
-1.120469574662659,-1.03351428423171,0.08451887972546877,0,0,0,1
-0.09688614466265912,-0.9051919442317099,-0.06455001427453122,0,0,0,1
-0.09688614466265912,-0.9051919442317099,-0.06455001427453122,0,0,0,1
0.055868641337340895,-0.7205030842317098,-0.6340794802745312,0,0,0,1
0.41589690533734086,-0.42155115423170986,-0.18981421027453124,0,0,0,1
0.41589690533734086,-0.42155115423170986,-0.18981421027453124,0,0,0,1
-0.17606495466265912,0.20003265576829013,-0.08605105027453124,0,0,0,1
0.8878998953373409,1.3100009157682901,0.6063987197254688,0,0,0,1
0.6989541253373409,1.0733285157682901,-0.33403912027453125,0,0,0,1
0.7045130853373409,0.7803567857682902,0.07962935972546877,0,0,0,1
0.7045130853373409,0.7803567857682902,0.07962935972546877,0,0,0,1
-0.11280296466265911,0.6866623157682902,-2.3115413802745315,0,0,0,1
0.0580182253373409,0.32897056576829015,-1.4584248802745312,0,0,0,1
-0.6955065746626591,-0.5223530842317099,-0.16193780027453122,0,0,0,1
-1.792247274662659,-1.10569788423171,0.9667067797254688,0,0,0,1
-1.472953274662659,-1.48962078423171,1.2400104197254689,0,0,0,1
0.9991765253373409,-0.5786267842317099,-0.6231354202745312,0,0,0,1
0.9153285253373409,0.1561815357682901,-2.003090180274531,0,0,0,1
-0.1329321746626591,-0.46541164423170983,-0.8429379802745312,0,0,0,1
-1.652553974662659,-1.0089839842317099,0.2883603897254688,0,0,0,1
-2.660039874662659,-1.2850086842317099,0.5470685597254689,0,0,0,1
-2.372170474662659,-1.14746088423171,1.0634679197254688,0,0,0,1
-1.199551074662659,-0.5935063142317099,0.8089157197254688,0,0,0,1
1.335782525337341,-0.19997997423170988,-1.086284880274531,0,0,0,1
0.6281800253373409,-0.4858321842317099,-1.2419325802745311,0,0,0,1
-0.4401392746626591,-0.7737983242317099,-0.11049458527453122,0,0,0,1
-1.195823174662659,-0.7495251842317099,1.3650450197254689,0,0,0,1
-0.8334278746626591,-0.20984516423170987,0.27846671972546877,0,0,0,1
-0.8334278746626591,-0.20984516423170987,0.27846671972546877,0,0,0,1
-0.8334278746626591,-0.20984516423170987,0.27846671972546877,0,0,0,1
0.6501488853373409,0.22156058576829013,-0.4482384002745312,0,0,0,1
0.17930080533734088,1.09497751576829,-0.5247189102745312,0,0,0,1
-1.103060274662659,1.45871581576829,0.8519043597254689,0,0,0,1
-1.103060274662659,1.45871581576829,0.8519043597254689,0,0,0,1
0.34674216533734087,0.9662803557682902,2.7137060197254685,0,0,0,1
2.1379704253373406,0.2162759157682901,1.8335738197254687,0,0,0,1
2.1379704253373406,0.2162759157682901,1.8335738197254687,0,0,0,1
2.8394504253373407,-0.19134975423170988,-0.012030126274531226,0,0,0,1
2.6173357253373406,0.19892968576829012,-1.4581285802745312,0,0,0,1
0.7927870953373409,0.08297749576829012,-2.1734249802745316,0,0,0,1
-0.8595938746626591,-0.8213164842317099,0.17058619972546876,0,0,0,1
-0.8595938746626591,-0.8213164842317099,0.17058619972546876,0,0,0,1
-2.672311774662659,-1.09268548423171,2.397953719725469,0,0,0,1
-1.002229174662659,-0.9515885842317099,2.4153468197254684,0,0,0,1
1.916333725337341,-0.7379451842317098,-0.6714327802745311,0,0,0,1
4.596417725337341,-0.20955060423170987,-1.6021074802745312,0,0,0,1
4.753494725337341,0.32060607576829014,-1.908859780274531,0,0,0,1
3.141086125337341,0.39613183576829014,-2.6335196802745315,0,0,0,1
-1.384914874662659,-0.7193225842317098,0.18083345972546877,0,0,0,1
-1.384914874662659,-0.7193225842317098,0.18083345972546877,0,0,0,1
-4.67521757466266,0.007379490768290128,1.1797077197254688,0,0,0,1
-1.707750774662659,0.41808416576829016,1.9781038197254688,0,0,0,1
2.8571505253373406,0.19260047576829012,-1.9080612802745311,0,0,0,1
2.8571505253373406,0.19260047576829012,-1.9080612802745311,0,0,0,1
4.0042967253373405,-0.32363408423170986,-1.6872804802745311,0,0,0,1
2.2138991253373406,-0.7371987842317098,-1.5195623802745313,0,0,0,1
-0.3176312246626591,-1.20230088423171,-0.4464345302745312,0,0,0,1
-0.3176312246626591,-1.20230088423171,-0.4464345302745312,0,0,0,1
-3.0764078746626593,-0.8991425842317099,0.8373234597254688,0,0,0,1
-4.333870874662659,-0.5385022842317099,1.4602245197254689,0,0,0,1
-4.333870874662659,-0.5385022842317099,1.4602245197254689,0,0,0,1
-0.3632035046626591,-0.40560828423170986,0.33573176972546875,0,0,0,1
1.735497925337341,0.2344259157682901,-0.9914105802745312,0,0,0,1
3.487531225337341,0.7550757157682901,-1.616370780274531,0,0,0,1
3.487531225337341,0.7550757157682901,-1.616370780274531,0,0,0,1
2.2345033253373408,0.9756745157682901,-1.3736259802745312,0,0,0,1
-1.566681374662659,0.5613046457682901,0.8375397597254688,0,0,0,1
-3.1068806746626594,0.7097021557682901,0.9393172497254688,0,0,0,1
-3.1068806746626594,0.7097021557682901,0.9393172497254688,0,0,0,1
-2.384889574662659,0.8292451157682902,1.2155055197254687,0,0,0,1
1.114973525337341,0.5083118157682901,-1.0571085802745313,0,0,0,1
2.6216540253373406,0.47030215576829015,-0.5363515802745312,0,0,0,1
2.6216540253373406,0.47030215576829015,-0.5363515802745312,0,0,0,1
2.6216540253373406,0.47030215576829015,-0.5363515802745312,0,0,0,1
-1.561857674662659,0.47811605576829014,1.1760112197254688,0,0,0,1
-1.561857674662659,0.47811605576829014,1.1760112197254688,0,0,0,1
-1.561857674662659,0.47811605576829014,1.1760112197254688,0,0,0,1
-1.052310474662659,0.45582266576829017,0.11794766972546877,0,0,0,1
0.1581368653373409,0.6435290157682901,-0.5555179802745311,0,0,0,1
1.184542225337341,0.8323240457682901,-0.9220932802745312,0,0,0,1
1.184542225337341,0.8323240457682901,-0.9220932802745312,0,0,0,1
-1.067120974662659,1.47490181576829,0.8557376597254688,0,0,0,1
-0.45517967466265913,1.52808761576829,-0.3484903002745312,0,0,0,1
1.516901525337341,1.03805411576829,-1.1905390802745313,0,0,0,1
1.516901525337341,1.03805411576829,-1.1905390802745313,0,0,0,1
-0.6430725746626591,-0.8711194842317098,0.6048713597254688,0,0,0,1
-1.784859174662659,-0.7271254442317099,1.2478215197254687,0,0,0,1
-0.8780483746626591,0.6328623457682901,0.44440838972546876,0,0,0,1
0.7135520253373409,0.1709269657682901,-0.8273130802745312,0,0,0,1
1.110268125337341,-0.0036486652317098715,0.42132681972546876,0,0,0,1
0.35009147533734086,-0.3724603442317099,-0.08483407027453123,0,0,0,1
-0.6077551746626592,-0.5719769842317098,-0.47066590027453126,0,0,0,1
-0.8299269746626591,-0.11672384423170987,0.9229669897254689,0,0,0,1
-0.8299269746626591,-0.11672384423170987,0.9229669897254689,0,0,0,1
-0.8860974146626591,0.01653661176829013,-0.9551339502745312,0,0,0,1
0.7929558953373409,0.01868503176829013,0.24685695972546878,0,0,0,1
0.014174000337340894,-0.11233438423170987,-1.4115368802745312,0,0,0,1
0.2012820453373409,-0.1646935142317099,-0.6012294802745312,0,0,0,1
0.2012820453373409,-0.1646935142317099,-0.6012294802745312,0,0,0,1
-0.7636847346626591,-0.21093970423170988,0.20319842972546878,0,0,0,1
0.4851555953373409,0.8879304757682901,-0.47632698027453124,0,0,0,1
0.4851555953373409,0.8879304757682901,-0.47632698027453124,0,0,0,1
0.4851555953373409,0.8879304757682901,-0.47632698027453124,0,0,0,1
0.4518399253373409,0.48502595576829016,-0.43555018027453124,0,0,0,1
0.010752217337340893,0.5426081157682902,1.0048457197254688,0,0,0,1
-0.013748629662659106,0.9247801457682902,0.8227401697254688,0,0,0,1
-0.16285847466265913,1.37009141576829,0.07791959972546877,0,0,0,1
0.3635544953373409,1.02298431576829,-0.3190058202745312,0,0,0,1
1.309445825337341,0.14273490576829012,-0.48160753027453124,0,0,0,1
1.443315025337341,-0.1695646442317099,-1.2703741802745312,0,0,0,1
1.443315025337341,-0.1695646442317099,-1.2703741802745312,0,0,0,1
1.867217525337341,0.7115366657682901,-0.8720091302745312,0,0,0,1
-0.06289432866265911,0.7736894657682901,-0.28433022027453125,0,0,0,1
-1.017769274662659,0.12341732576829013,0.5478659197254688,0,0,0,1
-1.089502774662659,-0.5057757842317099,0.8286473197254688,0,0,0,1
-1.089502774662659,-0.5057757842317099,0.8286473197254688,0,0,0,1
0.6907105653373409,0.19692241576829012,-0.2751322102745312,0,0,0,1
1.185890725337341,0.5419157157682901,-1.2481155802745312,0,0,0,1
1.185890725337341,0.5419157157682901,-1.2481155802745312,0,0,0,1
1.293259125337341,0.43452765576829017,-1.1037304802745311,0,0,0,1
0.07719184533734089,-0.2231667642317099,0.05005195572546878,0,0,0,1
-0.8368410746626591,-0.04860250423170987,-0.23817989027453124,0,0,0,1
-0.008037074262659104,0.2728649557682901,-0.32888833027453124,0,0,0,1
0.6015229253373409,0.03626452576829013,-0.5880202802745311,0,0,0,1
0.6015229253373409,0.03626452576829013,-0.5880202802745311,0,0,0,1
1.061568725337341,-0.31859053423170985,0.22165703972546877,0,0,0,1
0.4451871053373409,-0.6875538842317098,-0.10179344027453123,0,0,0,1
0.4451871053373409,-0.6875538842317098,-0.10179344027453123,0,0,0,1
0.15175868533734088,-0.28222628423170987,-0.05999949727453122,0,0,0,1
-0.8039259746626591,0.25758557576829016,-0.2598592402745312,0,0,0,1
-0.6590027746626591,-0.03840288923170987,-0.5087872802745311,0,0,0,1
-0.6590027746626591,-0.03840288923170987,-0.5087872802745311,0,0,0,1
0.44526722533734087,-0.6615318442317099,0.19189491972546877,0,0,0,1
0.44526722533734087,-0.6615318442317099,0.19189491972546877,0,0,0,1
0.18688155533734088,-0.6376734242317098,-0.10004511627453123,0,0,0,1
0.1953616253373409,-0.5894530242317099,-0.2529197602745312,0,0,0,1
-0.3249678446626591,-0.36354378423170985,-0.40177474027453125,0,0,0,1
-0.6615509746626591,-0.05122787923170987,-0.26449505027453124,0,0,0,1
-0.6615509746626591,-0.05122787923170987,-0.26449505027453124,0,0,0,1
-0.5318445746626591,0.5963470157682902,0.20573585972546876,0,0,0,1
-0.5318445746626591,0.5963470157682902,0.20573585972546876,0,0,0,1
0.0008750123373408945,0.7234810757682901,0.11891152972546878,0,0,0,1
0.4476657053373409,0.5074987557682902,-0.39265326027453124,0,0,0,1
0.6669926853373409,0.2227606357682901,-0.6077959302745312,0,0,0,1
0.1254105753373409,-0.40048585423170985,-0.7358862802745312,0,0,0,1
-0.6698403246626591,-0.3183339042317099,0.36997891972546876,0,0,0,1
-1.362417674662659,-0.2533239842317099,0.6909836797254688,0,0,0,1
-1.277056174662659,-0.32039262423170983,0.21364849972546876,0,0,0,1
-0.20206974466265912,-0.05314014423170987,0.4275279897254688,0,0,0,1
0.8886981253373409,0.21126337576829013,0.07770335472546877,0,0,0,1
1.539199325337341,0.43694551576829016,-0.24950501027453123,0,0,0,1
0.6761641653373409,1.12156451576829,-0.14572904027453124,0,0,0,1
0.3532729253373409,0.9241041757682902,0.11152609972546877,0,0,0,1
0.3532729253373409,0.9241041757682902,0.11152609972546877,0,0,0,1
-0.3107237746626591,0.45651735576829017,0.8010053197254688,0,0,0,1
-0.3107237746626591,0.45651735576829017,0.8010053197254688,0,0,0,1
-0.0503296686626591,0.29191015576829016,0.6799199197254688,0,0,0,1
0.9215941553373409,0.40639694576829016,-0.4568109802745312,0,0,0,1
0.6617694253373408,0.02698962576829013,-0.06513628527453122,0,0,0,1
0.6617694253373408,0.02698962576829013,-0.06513628527453122,0,0,0,1
0.6617694253373408,0.02698962576829013,-0.06513628527453122,0,0,0,1
0.18459273533734089,0.0072532423682901285,0.6562642697254688,0,0,0,1
0.6190018853373409,0.5323067457682902,-0.08627316527453123,0,0,0,1
0.6190018853373409,0.5323067457682902,-0.08627316527453123,0,0,0,1
0.3270259053373409,0.3671530157682901,-0.22062847027453122,0,0,0,1
-0.2430691546626591,0.05078405576829013,-0.39106980027453125,0,0,0,1
-0.4574227146626591,-0.1877982142317099,0.18677922972546876,0,0,0,1
-0.4574227146626591,-0.1877982142317099,0.18677922972546876,0,0,0,1
0.057389752337340894,-0.36123402423170986,-0.10528883527453123,0,0,0,1
0.057389752337340894,-0.2201070742317099,-0.3501550302745312,0,0,0,1
-0.17189262466265912,-0.36342948423170984,0.13190602972546878,0,0,0,1
-0.17189262466265912,-0.36342948423170984,0.13190602972546878,0,0,0,1
-0.27129600466265913,-0.3626833642317099,-0.042512330274531225,0,0,0,1
0.4210667753373409,-0.25400788423170984,-0.4810890302745312,0,0,0,1
-0.31988857466265913,-0.32911662423170984,-0.11414841027453122,0,0,0,1
-0.31988857466265913,-0.32911662423170984,-0.11414841027453122,0,0,0,1
-0.3830952446626591,-0.44229609423170985,-0.3207483002745312,0,0,0,1
0.3358626553373409,-0.1849191342317099,-0.5334570102745312,0,0,0,1
0.3358626553373409,-0.1849191342317099,-0.5334570102745312,0,0,0,1
0.29794837533734086,-0.2306068242317099,-0.6025684802745311,0,0,0,1
0.20007373533734088,-0.21489810423170988,-0.4974405502745312,0,0,0,1
0.20007373533734088,-0.21489810423170988,-0.4974405502745312,0,0,0,1
-0.23550842466265912,-0.16461723423170987,-0.15041218027453124,0,0,0,1
-0.04370067866265911,-0.6076675442317099,0.14112981972546876,0,0,0,1
0.09655048033734089,-0.6085121842317098,0.038580743725468776,0,0,0,1
0.2810874253373409,-0.49905435423170985,0.09871339972546878,0,0,0,1
0.7754893253373409,-0.6574703242317098,0.3214693997254688,0,0,0,1
0.4868836553373409,-0.5323314842317098,-0.07084587027453124,0,0,0,1
0.46750022533734087,-0.4513825342317099,0.32736843972546875,0,0,0,1
0.1873316953373409,-0.5907842342317099,-0.43523218027453126,0,0,0,1
0.4974303253373409,-0.4109242342317099,-0.13998839027453122,0,0,0,1
0.5942979253373409,0.03418216576829013,0.4482352697254688,0,0,0,1
-0.10023163466265911,0.6324017157682902,-0.29094698027453125,0,0,0,1
-0.15205810466265912,1.01740971576829,-0.10558751027453123,0,0,0,1
0.3240246953373409,0.9955067857682901,0.21226205972546877,0,0,0,1
0.8051390853373409,0.6537496657682902,0.056533159725468775,0,0,0,1
1.054205425337341,0.27416111576829016,-0.3308646402745312,0,0,0,1
1.017035025337341,0.3883302357682901,0.15568264972546877,0,0,0,1
-0.1478686146626591,0.6524783557682902,-0.8053257202745312,0,0,0,1
-1.0003723746626592,0.9691220157682902,-0.9862030502745311,0,0,0,1
-1.0003723746626592,0.9691220157682902,-0.9862030502745311,0,0,0,1
-0.9595780246626591,-0.5011650842317098,0.09076618972546877,0,0,0,1
-0.9595780246626591,-0.5011650842317098,0.09076618972546877,0,0,0,1
-0.22931240466265912,-0.48091111423170985,0.9019242197254689,0,0,0,1
-0.22931240466265912,-0.48091111423170985,0.9019242197254689,0,0,0,1
-0.4695114946626591,0.03504988876829013,-0.9661831802745312,0,0,0,1
-0.38154075466265913,-0.12867323423170987,-0.3664269202745312,0,0,0,1
-0.5106348746626591,-0.38058875423170985,-0.23846516027453124,0,0,0,1
-0.6230320746626591,-0.20656925423170988,-0.06733230027453123,0,0,0,1
-0.21813152466265912,1.34052931576829,-0.40335818027453124,0,0,0,1
-0.7627482246626591,1.37637591576829,-1.1623989802745311,0,0,0,1
-0.9999918746626592,0.7576729857682901,0.06880983572546877,0,0,0,1
-1.271362774662659,-0.7091171842317099,-0.07823423027453123,0,0,0,1
-0.0467133346626591,-0.5664593842317098,0.22859650972546877,0,0,0,1
1.499107825337341,-0.39192084423170986,0.9662420197254689,0,0,0,1
1.273429425337341,-0.6057792842317099,-1.1141531802745313,0,0,0,1
1.273429425337341,-0.6057792842317099,-1.1141531802745313,0,0,0,1
1.273429425337341,-0.6057792842317099,-1.1141531802745313,0,0,0,1
0.8925252253373409,-0.36736331423170987,0.42917578972546877,0,0,0,1
0.8925252253373409,-0.36736331423170987,0.42917578972546877,0,0,0,1
-0.1386942746626591,-0.7183488442317099,0.13428040972546876,0,0,0,1
-0.037211878662659105,-0.2049816942317099,0.7693348197254688,0,0,0,1
-0.037211878662659105,-0.2049816942317099,0.7693348197254688,0,0,0,1
-0.037211878662659105,-0.2049816942317099,0.7693348197254688,0,0,0,1
0.18274070533734088,-0.1667241442317099,-0.13066706027453123,0,0,0,1
2.1663967253373406,-0.07975400423170986,-0.7614526502745311,0,0,0,1
2.1663967253373406,-0.07975400423170986,-0.7614526502745311,0,0,0,1
2.1663967253373406,-0.07975400423170986,-0.7614526502745311,0,0,0,1
2.2960897253373407,-0.07626003423170986,-0.7803403802745311,0,0,0,1
1.884344625337341,-0.1332935842317099,-0.5376907302745312,0,0,0,1
0.7024903253373409,-0.0024904442317098714,0.04159328172546878,0,0,0,1
0.1622672253373409,0.2574476157682901,-0.23531690027453123,0,0,0,1
0.1622672253373409,0.2574476157682901,-0.23531690027453123,0,0,0,1
0.8646130753373409,0.8507221557682901,-1.1643747802745312,0,0,0,1
0.8646130753373409,0.8507221557682901,-1.1643747802745312,0,0,0,1
0.8198237553373409,0.49488011576829016,-0.21067521027453123,0,0,0,1
0.4391198253373409,-0.03854375423170987,0.5694347197254688,0,0,0,1
0.4391198253373409,-0.03854375423170987,0.5694347197254688,0,0,0,1
0.5323634253373409,-0.9709032842317099,0.41656471972546877,0,0,0,1
0.9756074253373409,-1.38788658423171,-0.6749294102745311,0,0,0,1
0.28301669533734086,-1.83213778423171,-1.176010180274531,0,0,0,1
-1.249213674662659,-2.00010388423171,0.6331475697254688,0,0,0,1
-1.249213674662659,-2.00010388423171,0.6331475697254688,0,0,0,1
-1.817914474662659,-1.69402548423171,1.1434615197254687,0,0,0,1
-1.401958974662659,-1.18969058423171,0.7620241197254688,0,0,0,1
1.949787625337341,-0.24392578423170988,-1.2684733802745312,0,0,0,1
2.1369815253373408,0.5521097157682902,-0.9318314802745312,0,0,0,1
0.3229270253373409,0.5999715557682902,-1.576326380274531,0,0,0,1
-1.094865274662659,-0.019595306231709873,-0.7148078402745311,0,0,0,1
-1.973587474662659,-0.5332289842317098,0.4812455497254688,0,0,0,1
-1.973587474662659,-0.5332289842317098,0.4812455497254688,0,0,0,1
