acc_x,acc_y,acc_z,gyro_x,gyro_y,gyro_z,label
-6.425109274662659,0.07785503576829013,1.6147831197254687,0,0,0,1
-2.645996574662659,1.26961541576829,2.4590303197254686,0,0,0,1
2.299577225337341,1.52147571576829,0.7963566197254688,0,0,0,1
2.299577225337341,1.52147571576829,0.7963566197254688,0,0,0,1
4.916781725337341,-0.6122738842317098,-1.6548957802745312,0,0,0,1
2.4912657253373407,-0.9037246542317099,-2.7423641802745315,0,0,0,1
2.4912657253373407,-0.9037246542317099,-2.7423641802745315,0,0,0,1
2.4912657253373407,-0.9037246542317099,-2.7423641802745315,0,0,0,1
-5.132413874662659,2.9355809157682904,-0.7921447502745311,0,0,0,1
-7.117686774662659,3.29169061576829,-0.5764856802745312,0,0,0,1
-4.9581372746626595,0.7329874157682902,0.7509898797254688,0,0,0,1
2.059856925337341,-3.05555438423171,-1.9693357802745313,0,0,0,1
2.059856925337341,-3.05555438423171,-1.9693357802745313,0,0,0,1
6.145418725337341,-1.69899818423171,0.10667195972546877,0,0,0,1
3.916923025337341,0.25158369576829015,0.9187780197254688,0,0,0,1
-0.08791874466265912,1.7827216157682901,0.053271499725468775,0,0,0,1
-2.7395081746626593,1.26702011576829,0.6542743197254688,0,0,0,1
-2.7395081746626593,1.26702011576829,0.6542743197254688,0,0,0,1
-3.3925265746626594,-0.9383382842317098,-1.5466501802745312,0,0,0,1
-3.3925265746626594,-0.9383382842317098,-1.5466501802745312,0,0,0,1
1.524670125337341,0.8898851457682901,-0.8720114802745311,0,0,0,1
2.1363197253373407,0.9965805157682901,-1.521063080274531,0,0,0,1
1.912478025337341,-1.44896708423171,0.07937535472546876,0,0,0,1
1.912478025337341,-1.44896708423171,0.07937535472546876,0,0,0,1
-1.203805474662659,1.30190371576829,0.6620011197254688,0,0,0,1
-1.203805474662659,1.30190371576829,0.6620011197254688,0,0,0,1
-0.8852438746626591,1.43343561576829,0.2933261397254688,0,0,0,1
0.6882558253373409,-1.19476678423171,-0.8633911802745312,0,0,0,1
1.955919725337341,0.5662274557682901,-1.110192480274531,0,0,0,1
1.955919725337341,0.5662274557682901,-1.110192480274531,0,0,0,1
-1.167945374662659,-2.8889874842317096,0.14472519972546877,0,0,0,1
0.5779214253373409,-2.5952977842317098,1.0609471197254687,0,0,0,1
0.5779214253373409,-2.5952977842317098,1.0609471197254687,0,0,0,1
-0.23913429466265912,0.37875138576829015,1.3389168197254688,0,0,0,1
2.8632274253373406,2.3605781157682904,0.9485375597254688,0,0,0,1
2.9748549253373406,0.24900681576829012,-0.15833512027453123,0,0,0,1
-1.935018074662659,-2.82325608423171,-1.4300150802745313,0,0,0,1
-1.935018074662659,-2.82325608423171,-1.4300150802745313,0,0,0,1
-1.412248074662659,-2.02772778423171,-2.4304180802745314,0,0,0,1
1.264411425337341,2.6063019157682903,0.39252799972546876,0,0,0,1
0.3090701253373409,-0.40654502423170985,0.6855830197254689,0,0,0,1
-0.0693068346626591,-1.44664318423171,0.18297278972546877,0,0,0,1
1.381341425337341,-1.90521168423171,-0.4468966102745312,0,0,0,1
2.0893397253373407,-1.39153398423171,-0.8918627202745312,0,0,0,1
-0.1788964146626591,-0.9572674842317098,-0.8120465802745311,0,0,0,1
-0.1788964146626591,-0.9572674842317098,-0.8120465802745311,0,0,0,1
-3.414000474662659,-0.029373478231709868,-0.5482456802745311,0,0,0,1
-1.601927274662659,0.22374759576829012,-0.23001561027453124,0,0,0,1
0.3280282253373409,0.5549370857682902,-0.24751264027453124,0,0,0,1
2.083367725337341,-0.01525641623170987,-0.5554942802745312,0,0,0,1
3.6923480253373406,0.1270901457682901,-0.9392954802745311,0,0,0,1
3.6923480253373406,0.1270901457682901,-0.9392954802745311,0,0,0,1
0.8755660253373408,0.2615968457682901,-1.4715890802745313,0,0,0,1
-3.4002489746626594,0.4858925157682901,-0.18995688027453123,0,0,0,1
-3.4002489746626594,0.4858925157682901,-0.18995688027453123,0,0,0,1
-3.394849774662659,1.02316891576829,0.13109033972546877,0,0,0,1
0.6231427253373409,0.2380972957682901,-0.2919828002745312,0,0,0,1
2.305032225337341,-1.1499268842317099,-0.9794492402745312,0,0,0,1
2.305032225337341,-1.1499268842317099,-0.9794492402745312,0,0,0,1
2.0003533253373407,-1.41215818423171,-0.3584259502745312,0,0,0,1
0.6673197953373409,-0.11139388023170987,-0.028296800274531225,0,0,0,1
-0.8388457146626591,1.54271541576829,0.5792102497254689,0,0,0,1
-0.8388457146626591,1.54271541576829,0.5792102497254689,0,0,0,1
-1.267996274662659,2.66254901576829,0.8108054197254688,0,0,0,1
1.119196425337341,0.29886479576829017,0.5416684197254689,0,0,0,1
1.119196425337341,0.29886479576829017,0.5416684197254689,0,0,0,1
4.169522725337341,-1.10847628423171,0.7930915197254689,0,0,0,1
0.35906554533734086,0.06723483576829013,-3.2929708802745314,0,0,0,1
0.35906554533734086,0.06723483576829013,-3.2929708802745314,0,0,0,1
-3.3219327746626592,-0.7814044842317098,-3.4373166802745314,0,0,0,1
-3.3219327746626592,-0.7814044842317098,-3.4373166802745314,0,0,0,1
-3.3219327746626592,-0.7814044842317098,-3.4373166802745314,0,0,0,1
-6.6580402746626595,2.24963261576829,5.182515819725468,0,0,0,1
-0.9994149046626591,1.78568211576829,6.1656943197254686,0,0,0,1
6.031635725337341,-0.08578742423170987,1.4263012197254687,0,0,0,1
6.031635725337341,-0.08578742423170987,1.4263012197254687,0,0,0,1
10.093684725337342,-1.69102638423171,-1.9004793802745312,0,0,0,1
6.239779025337341,-3.0658685842317097,-6.401003680274531,0,0,0,1
-2.2577128746626594,-4.42797138423171,-16.812982680274533,0,0,0,1
-15.127140274662658,4.56776331576829,6.974399319725468,0,0,0,1
-15.127140274662658,4.56776331576829,6.974399319725468,0,0,0,1
6.991417425337341,-1.08390858423171,1.6179246197254689,0,0,0,1
8.222071725337342,-1.86518908423171,1.8622364197254688,0,0,0,1
7.321876025337341,-1.95940818423171,-2.3356235802745315,0,0,0,1
7.321876025337341,-1.95940818423171,-2.3356235802745315,0,0,0,1
4.99679142533734,-3.1174401842317097,-10.13837968027453,0,0,0,1
-1.635880974662659,-0.8898031842317099,-8.60122168027453,0,0,0,1
-1.635880974662659,-0.8898031842317099,-8.60122168027453,0,0,0,1
-7.857159274662659,4.75380331576829,4.542766819725468,0,0,0,1
-5.182299274662659,2.90475541576829,3.2017476197254684,0,0,0,1
-5.182299274662659,2.90475541576829,3.2017476197254684,0,0,0,1
0.6314816653373408,0.9545288157682902,1.4506638197254689,0,0,0,1
7.931936725337341,-2.9180316842317096,-0.03529086827453123,0,0,0,1
7.931936725337341,-2.9180316842317096,-0.03529086827453123,0,0,0,1
3.549197725337341,-2.9578053842317096,-0.8921318802745312,0,0,0,1
-2.702147974662659,-0.3383111442317099,1.4813728197254687,0,0,0,1
-5.286886274662659,0.7391699157682902,1.5463882197254688,0,0,0,1
-5.286886274662659,0.7391699157682902,1.5463882197254688,0,0,0,1
-6.956489974662659,2.95075591576829,1.235507719725469,0,0,0,1
4.39858202533734,-1.44474988423171,-0.8816522802745311,0,0,0,1
4.39858202533734,-1.44474988423171,-0.8816522802745311,0,0,0,1
5.847801725337341,-1.5152117842317099,-1.4224607802745313,0,0,0,1
3.4652267253373408,-0.6126532842317098,-1.3886541802745311,0,0,0,1
3.5124955253373407,0.20233188576829012,-1.185610080274531,0,0,0,1
2.6284060253373407,0.5999312557682901,-1.512799180274531,0,0,0,1
-4.949037274662659,0.8132125157682901,-0.4012451502745312,0,0,0,1
-3.3614377746626594,-0.2318539142317099,0.7128463197254689,0,0,0,1
-0.5052256446626591,-1.09830888423171,0.5017176197254688,0,0,0,1
0.24863292533734088,-0.6403630842317098,0.33957853972546875,0,0,0,1
0.7866988253373409,-0.11308751423170987,-0.035121710274531225,0,0,0,1
2.561029925337341,-0.9009338842317098,-0.17667064027453122,0,0,0,1
2.561029925337341,-0.9009338842317098,-0.17667064027453122,0,0,0,1
-0.6584543746626591,0.6180105157682901,-1.9042553802745312,0,0,0,1
-0.45578049466265913,0.45305903576829015,-1.4720158802745311,0,0,0,1
-0.4801230246626591,0.6124745157682902,-1.334561380274531,0,0,0,1
-0.4801230246626591,0.36387737576829016,-1.0096230802745312,0,0,0,1
-0.6772236746626591,0.36387737576829016,-1.0096230802745312,0,0,0,1
0.3683228653373409,-0.4412130242317099,0.23609530972546877,0,0,0,1
0.1242957253373409,0.26332701576829015,0.6184682497254689,0,0,0,1
-0.09623573466265911,0.1373023557682901,0.8367403197254688,0,0,0,1
-0.11710308466265912,-0.19915635423170988,0.5897389197254689,0,0,0,1
-0.11710308466265912,-0.19915635423170988,0.5897389197254689,0,0,0,1
0.7543902553373409,0.01647614276829013,-1.3100356802745312,0,0,0,1
0.7543902553373409,0.01647614276829013,-1.3100356802745312,0,0,0,1
0.7543902553373409,0.01647614276829013,-1.3100356802745312,0,0,0,1
-1.157324274662659,1.06775011576829,-0.6194545302745311,0,0,0,1
1.301714425337341,-0.4999284842317099,0.055798979725468774,0,0,0,1
1.025754425337341,-0.6806927842317099,0.24750634972546876,0,0,0,1
0.6845078653373409,-0.031186681231709867,0.34576773972546876,0,0,0,1
-0.3199810746626591,0.6537140157682901,0.9771887197254688,0,0,0,1
-0.3199810746626591,0.6537140157682901,0.9771887197254688,0,0,0,1
-0.0359930846626591,-0.05074564723170987,-0.2841756802745312,0,0,0,1
0.8422703953373409,-0.36877001423170985,-1.4043746802745312,0,0,0,1
-0.8475050746626591,-0.24695916423170988,-1.6579387802745311,0,0,0,1
-1.887670974662659,0.09693320576829013,-0.5322961802745312,0,0,0,1
-2.0389303746626593,1.00690581576829,0.6397232197254689,0,0,0,1
-2.0389303746626593,1.00690581576829,0.6397232197254689,0,0,0,1
3.016077525337341,-0.2548776642317099,0.35194901972546877,0,0,0,1
2.4094834253373407,-1.30378478423171,0.19508584972546877,0,0,0,1
0.4702773253373409,-2.1014510842317096,-0.48439608027453124,0,0,0,1
0.4702773253373409,-2.1014510842317096,-0.48439608027453124,0,0,0,1
-1.721741174662659,-1.54020378423171,-0.5422780202745312,0,0,0,1
-3.261944774662659,0.7271480757682901,-0.059187324274531224,0,0,0,1
-1.139746174662659,1.1369420157682901,0.16926985972546876,0,0,0,1
1.275220425337341,0.7304883157682901,-0.023196549774531224,0,0,0,1
1.275220425337341,0.7304883157682901,-0.023196549774531224,0,0,0,1
2.873969525337341,-0.8072026842317098,-0.31897625027453125,0,0,0,1
1.519154125337341,-0.7299002242317099,-0.024423153274531227,0,0,0,1
-0.17578743466265911,0.32474126576829015,-0.10798380027453124,0,0,0,1
-0.17578743466265911,0.32474126576829015,-0.10798380027453124,0,0,0,1
-1.146842474662659,1.21667691576829,0.06131973972546877,0,0,0,1
-1.176502674662659,1.17516421576829,-0.27867468027453124,0,0,0,1
-0.4254793946626591,-1.27889598423171,-0.7518677402745312,0,0,0,1
-0.4254793946626591,-1.27889598423171,-0.7518677402745312,0,0,0,1
-0.4254793946626591,-1.27889598423171,-0.7518677402745312,0,0,0,1
1.219967425337341,-0.5883377842317099,-1.0696891802745312,0,0,0,1
1.219967425337341,-0.5883377842317099,-1.0696891802745312,0,0,0,1
0.8605218253373409,0.6672559157682901,-0.48450974027453125,0,0,0,1
-0.19231556466265912,-0.8984826842317098,0.25300231972546877,0,0,0,1
-1.723902174662659,-0.07003520423170986,0.9552700197254689,0,0,0,1
1.342439225337341,0.6288162657682902,0.7465390197254689,0,0,0,1
1.342439225337341,0.6288162657682902,0.7465390197254689,0,0,0,1
1.532805925337341,0.08649860576829013,-0.05425802027453122,0,0,0,1
-0.8091015746626591,-0.38481828423170983,-1.642305380274531,0,0,0,1
-0.8091015746626591,-0.38481828423170983,-1.642305380274531,0,0,0,1
-0.8091015746626591,-0.38481828423170983,-1.642305380274531,0,0,0,1
0.6032166653373409,-0.27925722423170984,0.19067385972546877,0,0,0,1
0.2239260853373409,-1.01873208423171,0.41855733972546877,0,0,0,1
0.2239260853373409,-1.01873208423171,0.41855733972546877,0,0,0,1
0.12694980533734088,-0.9898715842317098,1.0031096197254687,0,0,0,1
0.07228709533734089,0.5441387157682901,0.6116602697254688,0,0,0,1
0.07228709533734089,0.5441387157682901,0.6116602697254688,0,0,0,1
0.6075148753373409,0.6145402157682901,-0.9774212802745311,0,0,0,1
0.6075148753373409,0.6145402157682901,-0.9774212802745311,0,0,0,1
-1.103474074662659,-0.6491411842317099,-1.6015732802745313,0,0,0,1
-1.107481474662659,-0.5478642442317099,-1.213970580274531,0,0,0,1
-1.107481474662659,-0.5478642442317099,-1.213970580274531,0,0,0,1
0.9063410953373409,-0.18230662423170987,0.014145104725468774,0,0,0,1
1.957010725337341,0.06472523876829013,0.6088624897254689,0,0,0,1
1.780326425337341,0.5627329157682901,0.6703994597254688,0,0,0,1
1.780326425337341,0.5627329157682901,0.6703994597254688,0,0,0,1
-0.6764550046626591,0.5196615157682901,0.48097815972546876,0,0,0,1
-0.6764550046626591,0.5196615157682901,0.48097815972546876,0,0,0,1
-1.607409974662659,-0.18566642423170987,-0.7914731202745312,0,0,0,1
-1.607409974662659,-0.18566642423170987,-0.7914731202745312,0,0,0,1
0.4903903253373409,-0.5453782842317099,-1.3643014802745312,0,0,0,1
0.4903903253373409,-0.5453782842317099,-1.3643014802745312,0,0,0,1
1.409026625337341,0.07873972076829013,-0.5264002802745312,0,0,0,1
1.409026625337341,0.07873972076829013,-0.5264002802745312,0,0,0,1
0.3618827053373409,0.8296133457682902,-0.19753018027453123,0,0,0,1
-1.050658674662659,0.15035061576829012,-0.33519092027453123,0,0,0,1
-1.585857874662659,-1.0029303842317099,0.8636666797254688,0,0,0,1
-1.585857874662659,-1.0029303842317099,0.8636666797254688,0,0,0,1
0.3320622653373409,0.015734034768290127,0.5858311197254689,0,0,0,1
0.3320622653373409,0.015734034768290127,0.5858311197254689,0,0,0,1
1.794103125337341,0.8183004157682902,-0.09947136027453123,0,0,0,1
-1.237029574662659,-1.58714478423171,-1.768373980274531,0,0,0,1
-2.756122574662659,-1.4392133842317099,-1.3679928802745311,0,0,0,1
-2.756122574662659,-1.4392133842317099,-1.3679928802745311,0,0,0,1
-1.318278774662659,2.4030795157682903,0.7583837197254688,0,0,0,1
-1.318278774662659,2.4030795157682903,0.7583837197254688,0,0,0,1
-1.318278774662659,2.4030795157682903,0.7583837197254688,0,0,0,1
3.4774317253373406,0.25045238576829015,0.44921844972546876,0,0,0,1
3.4774317253373406,0.25045238576829015,0.44921844972546876,0,0,0,1
-0.5773529746626591,-0.20626733423170987,-0.9950340102745312,0,0,0,1
-0.5773529746626591,-0.20626733423170987,-0.9950340102745312,0,0,0,1
-3.5149112746626594,-0.25208888423170983,-0.9890669802745312,0,0,0,1
-2.6696032746626592,0.20060490576829013,-0.36724231027453125,0,0,0,1
-2.6696032746626592,0.20060490576829013,-0.36724231027453125,0,0,0,1
-0.07579754466265912,0.6776668157682901,-0.17801216027453123,0,0,0,1
2.1976952253373407,-0.04794405023170987,-0.20965025027453124,0,0,0,1
2.8800702253373407,-0.5746453242317099,0.027597872725468774,0,0,0,1
2.3603367253373406,-0.42040692423170983,0.5365811197254688,0,0,0,1
1.160395125337341,-0.24189631423170987,0.16194173972546877,0,0,0,1
-0.8603091046626591,-0.22494749423170987,-0.15219382027453124,0,0,0,1
-2.447259874662659,0.39497743576829014,-0.16782799027453124,0,0,0,1
-1.192353674662659,-0.25010792423170985,-0.007161648614531225,0,0,0,1
-1.192353674662659,-0.25010792423170985,-0.007161648614531225,0,0,0,1
0.2509312753373409,0.6531923557682902,-0.6605352502745312,0,0,0,1
2.265476725337341,0.9206908557682901,-0.9060905302745311,0,0,0,1
-1.379231874662659,1.30990651576829,1.6634438197254688,0,0,0,1
-1.379231874662659,1.30990651576829,1.6634438197254688,0,0,0,1
-1.379231874662659,1.30990651576829,1.6634438197254688,0,0,0,1
-1.379231874662659,1.30990651576829,1.6634438197254688,0,0,0,1
0.7184004953373408,-0.45716308423170987,-1.6669101802745312,0,0,0,1
-3.064076874662659,-1.01393248423171,-1.6549692802745313,0,0,0,1
-2.4876922746626593,-0.016691428231709875,-1.2062726802745312,0,0,0,1
-2.4876922746626593,-0.016691428231709875,-1.2062726802745312,0,0,0,1
-0.14741657466265912,0.5669972457682901,0.8534287497254688,0,0,0,1
1.468547325337341,-1.36746508423171,0.6895882197254688,0,0,0,1
2.058218525337341,-0.12023476923170986,0.033415882725468776,0,0,0,1
2.058218525337341,-0.12023476923170986,0.033415882725468776,0,0,0,1
1.866301125337341,1.4217231157682901,-0.6039021302745312,0,0,0,1
-3.7170013746626593,-0.35113320423170985,-1.987520680274531,0,0,0,1
-3.7170013746626593,-0.35113320423170985,-1.987520680274531,0,0,0,1
-3.863204974662659,-1.0874907842317099,-1.3410556802745313,0,0,0,1
-3.863204974662659,-1.0874907842317099,-1.3410556802745313,0,0,0,1
1.541917325337341,-0.061589104231709865,0.47478691972546877,0,0,0,1
3.389835825337341,0.5273877157682901,0.6663878797254689,0,0,0,1
4.071087425337341,0.46544591576829014,0.44657784972546877,0,0,0,1
4.071087425337341,0.46544591576829014,0.44657784972546877,0,0,0,1
3.1604457253373406,0.03340383176829013,0.12817355972546876,0,0,0,1
1.049680225337341,-1.10068618423171,-0.15377233027453122,0,0,0,1
-1.388555074662659,-1.13640088423171,0.15735700972546876,0,0,0,1
-3.812179574662659,-0.04926596423170987,-0.7778999802745312,0,0,0,1
-2.702909974662659,1.16707991576829,-0.9749218802745312,0,0,0,1
0.26669742533734087,0.7741083157682901,-0.4600726102745312,0,0,0,1
1.261004925337341,0.35664476576829013,-0.6747154802745312,0,0,0,1
1.261815525337341,0.3503748957682901,-0.6598236302745312,0,0,0,1
2.0549493253373408,-0.7332182842317099,-1.0304075802745312,0,0,0,1
-2.263036674662659,0.46523021576829016,0.4703810797254688,0,0,0,1
-2.263036674662659,0.46523021576829016,0.4703810797254688,0,0,0,1
-2.263036674662659,0.46523021576829016,0.4703810797254688,0,0,0,1
-0.3836064146626591,-0.5666066842317099,1.2553215197254688,0,0,0,1
0.3447671053373409,1.05386421576829,0.16907813972546876,0,0,0,1
1.133924025337341,0.9785279157682901,0.16561367972546878,0,0,0,1
1.133924025337341,0.9785279157682901,0.16561367972546878,0,0,0,1
1.657565625337341,-1.5194912842317099,-3.524068380274531,0,0,0,1
-1.309803474662659,-2.2119068842317096,-2.2399609802745313,0,0,0,1
-3.766150974662659,-0.7097285842317098,-1.9493150802745312,0,0,0,1
-3.766150974662659,-0.7097285842317098,-1.9493150802745312,0,0,0,1
0.23500777533734088,3.3334055157682903,1.2681791197254688,0,0,0,1
2.740060325337341,3.4346054157682904,1.7629442197254688,0,0,0,1
3.259125225337341,2.6549597157682903,0.5795387197254688,0,0,0,1
3.259125225337341,2.6549597157682903,0.5795387197254688,0,0,0,1
1.135714025337341,-2.5961257842317096,-1.5006988802745311,0,0,0,1
1.135714025337341,-2.5961257842317096,-1.5006988802745311,0,0,0,1
-4.1891059746626595,0.1571205757682901,-1.1192700802745312,0,0,0,1
-4.1891059746626595,0.1571205757682901,-1.1192700802745312,0,0,0,1
-3.2285737746626593,2.7057085157682903,-0.5090630802745312,0,0,0,1
3.164269925337341,-0.37424988423170985,-0.45056763027453123,0,0,0,1
3.164269925337341,-0.37424988423170985,-0.45056763027453123,0,0,0,1
3.164269925337341,-0.37424988423170985,-0.45056763027453123,0,0,0,1
3.2768845253373406,-2.23702608423171,-0.8426188802745311,0,0,0,1
0.8663211253373408,-1.04666398423171,-0.6499340802745311,0,0,0,1
-2.3287438746626594,0.23167398576829012,0.31191658972546876,0,0,0,1
-3.5229362746626594,0.9950543857682902,0.4955184197254688,0,0,0,1
-2.507576474662659,0.7746600657682902,1.0696598197254688,0,0,0,1
