acc_x,acc_y,acc_z,gyro_x,gyro_y,gyro_z,label
1.936588725337341,-0.7618819242317099,-0.40216783027453124,0,0,0,1
1.397100025337341,-1.66234758423171,-1.1884038802745311,0,0,0,1
0.14264251533734087,-0.6162954842317099,-0.46535078027453125,0,0,0,1
0.14264251533734087,-0.6162954842317099,-0.46535078027453125,0,0,0,1
-1.730681874662659,1.63160421576829,1.2505137197254688,0,0,0,1
0.3556809553373409,-0.009483676231709872,0.5822801897254688,0,0,0,1
1.993053025337341,-1.11953318423171,-0.4638585202745312,0,0,0,1
3.6751971253373408,-0.20804606423170988,0.2907168597254688,0,0,0,1
3.6751971253373408,-0.20804606423170988,0.2907168597254688,0,0,0,1
1.122677325337341,1.21254851576829,-0.4081203102745312,0,0,0,1
-4.00562927466266,0.4762551957682901,0.08693029972546877,0,0,0,1
-4.00562927466266,0.4762551957682901,0.08693029972546877,0,0,0,1
-4.00562927466266,0.4762551957682901,0.08693029972546877,0,0,0,1
0.4662442253373409,0.2437800357682901,0.06401350972546876,0,0,0,1
2.521155825337341,0.5044914157682902,-0.17628309027453123,0,0,0,1
2.521155825337341,0.5044914157682902,-0.17628309027453123,0,0,0,1
3.0767455253373406,-0.46620891423170985,0.18106027972546876,0,0,0,1
0.8231826253373409,-1.70644658423171,-1.4414224802745312,0,0,0,1
-1.336069574662659,-0.9119428242317098,-1.4129941802745312,0,0,0,1
-0.9560999746626591,2.4753389157682903,1.1128673197254688,0,0,0,1
-1.167244374662659,1.94284691576829,0.8481257197254688,0,0,0,1
-1.167244374662659,1.94284691576829,0.8481257197254688,0,0,0,1
0.08076812533734089,-1.62915408423171,0.13632824972546878,0,0,0,1
2.0113482253373407,-1.49949428423171,-0.08718947027453124,0,0,0,1
1.654069425337341,-0.47216866423170983,0.6432882197254688,0,0,0,1
1.654069425337341,-0.47216866423170983,0.6432882197254688,0,0,0,1
0.7030148653373409,1.48455371576829,-0.18147925027453124,0,0,0,1
-0.3774351946626591,1.32277561576829,0.19377335972546877,0,0,0,1
-0.3774351946626591,1.32277561576829,0.19377335972546877,0,0,0,1
-0.6947150046626591,-0.9815581842317098,-0.7438658802745312,0,0,0,1
0.2501206553373409,-0.5123858242317099,-0.21434048027453123,0,0,0,1
-0.3930477946626591,0.7879395157682901,0.11642875972546878,0,0,0,1
-0.1409268246626591,1.04091561576829,1.0089113197254689,0,0,0,1
0.9987378253373408,0.5520940157682901,0.7511304197254688,0,0,0,1
-0.4960236346626591,0.8105029157682901,-0.12394062027453123,0,0,0,1
-0.5930027746626592,0.38690604576829013,0.12000753972546876,0,0,0,1
-0.5930027746626592,0.38690604576829013,0.12000753972546876,0,0,0,1
-0.07860706466265911,-0.7029245342317099,-0.5632839802745312,0,0,0,1
0.5961299253373409,-0.2807497842317099,-0.4832278202745312,0,0,0,1
0.5961299253373409,-0.2807497842317099,-0.4832278202745312,0,0,0,1
0.12145282533734089,0.5145267157682901,0.25532578972546877,0,0,0,1
0.12145282533734089,0.5145267157682901,0.25532578972546877,0,0,0,1
0.37888385533734087,0.31401939576829013,0.23800876972546878,0,0,0,1
0.24711467533734088,-0.23702491423170988,-0.15997818027453123,0,0,0,1
-0.054611666662659104,-0.5880325842317099,-0.3079741802745312,0,0,0,1
0.6540761253373409,-0.5201123842317098,-0.38682523027453125,0,0,0,1
1.272492925337341,-1.00607738423171,-0.31138542027453125,0,0,0,1
-2.121488574662659,-0.1836668042317099,-0.2937016202745312,0,0,0,1
-2.050749774662659,1.17791031576829,0.34243531972546876,0,0,0,1
-0.8971485746626591,2.22051951576829,1.4029486197254688,0,0,0,1
0.9112887253373408,0.9850067157682901,-0.13683811027453122,0,0,0,1
0.9112887253373408,0.9850067157682901,-0.13683811027453122,0,0,0,1
3.2106442253373406,-1.9998483842317099,-1.1459293802745312,0,0,0,1
0.9930577253373409,-0.8615078842317099,-1.548427580274531,0,0,0,1
-0.7011465746626591,0.25194227576829015,-0.49663768027453126,0,0,0,1
-3.2215852746626594,2.0312464157682903,0.7509188197254688,0,0,0,1
-3.2215852746626594,2.0312464157682903,0.7509188197254688,0,0,0,1
0.6000390253373409,0.5300958157682901,0.7626253697254688,0,0,0,1
2.9481063253373407,-1.20584688423171,-0.6198767802745312,0,0,0,1
2.1491685253373407,-1.02360508423171,-0.8159336202745312,0,0,0,1
0.7758832253373409,-0.8455159842317098,-1.0074977802745313,0,0,0,1
-2.847668174662659,0.2469653857682901,0.2780455897254688,0,0,0,1
-2.847668174662659,0.2469653857682901,0.2780455897254688,0,0,0,1
-0.1576895546626591,-0.09359199923170987,0.8676244897254688,0,0,0,1
0.1316418853373409,0.1986274557682901,0.31927075972546876,0,0,0,1
1.219816725337341,-0.39378545423170985,0.40079871972546877,0,0,0,1
1.219816725337341,-0.39378545423170985,0.40079871972546877,0,0,0,1
-2.2127756746626592,-0.25303844423170985,-0.8463071802745312,0,0,0,1
-2.2127756746626592,-0.25303844423170985,-0.8463071802745312,0,0,0,1
-1.379271974662659,0.08744117976829013,0.027273086725468774,0,0,0,1
1.732697025337341,0.46982749576829014,-0.5895523102745311,0,0,0,1
1.779544325337341,0.1287145457682901,-0.6410075102745312,0,0,0,1
0.5890708253373409,0.16309935576829013,-0.06887403327453123,0,0,0,1
-0.4509844746626591,-0.31199596423170983,0.9949669197254689,0,0,0,1
-0.4509844746626591,-0.31199596423170983,0.9949669197254689,0,0,0,1
0.9949145253373409,0.18552394576829012,0.8318931697254688,0,0,0,1
0.7008977253373408,-0.5129291842317099,-1.0685738802745313,0,0,0,1
0.7008977253373408,-0.5129291842317099,-1.0685738802745313,0,0,0,1
-1.360462674662659,-0.06916655423170986,-0.8973888502745312,0,0,0,1
-1.407973774662659,0.35424441576829013,0.19448673972546876,0,0,0,1
-1.407973774662659,0.35424441576829013,0.19448673972546876,0,0,0,1
-0.5802578746626591,0.19367423576829013,0.45535271972546876,0,0,0,1
1.867948025337341,-0.41773770423170986,0.18095126972546877,0,0,0,1
1.867948025337341,-0.41773770423170986,0.18095126972546877,0,0,0,1
-0.31243465466265913,0.8177323557682902,0.023902444725468774,0,0,0,1
-1.209004874662659,-0.48064045423170987,-1.9000177802745313,0,0,0,1
-2.060160174662659,-0.7097265542317098,-1.040384580274531,0,0,0,1
-1.757935974662659,0.03594801176829013,-0.33722243027453125,0,0,0,1
0.5332846753373409,1.12359011576829,0.8837085197254688,0,0,0,1
2.2974152253373408,0.9152910157682902,0.7795861197254689,0,0,0,1
2.941492525337341,0.6384883657682902,0.19728305972546878,0,0,0,1
2.9210629253373406,-0.5180811842317099,-0.5617246802745312,0,0,0,1
-3.720141374662659,0.48813211576829013,-0.24280927027453122,0,0,0,1
-3.720141374662659,0.48813211576829013,-0.24280927027453122,0,0,0,1
-3.732741274662659,0.5045376157682901,-0.37034264027453123,0,0,0,1
-0.027815325662659103,0.7237537157682902,0.6994300797254688,0,0,0,1
-0.027815325662659103,0.7237537157682902,0.6994300797254688,0,0,0,1
2.3680377253373406,0.35361811576829016,0.6036041697254688,0,0,0,1
3.6186452253373407,-0.9024465842317099,-0.48426542027453123,0,0,0,1
0.6805415253373409,-0.07825120923170988,-0.9301120802745312,0,0,0,1
0.6805415253373409,-0.07825120923170988,-0.9301120802745312,0,0,0,1
-3.5336742746626593,0.2972500457682901,-0.5733997802745312,0,0,0,1
-1.755118874662659,0.1894925557682901,0.38509463972546876,0,0,0,1
0.1697669253373409,-0.08294053023170987,0.8587821197254688,0,0,0,1
2.116955325337341,0.8430017157682902,0.35192944972546875,0,0,0,1
3.6252847253373406,-0.5537171142317099,-0.5034421402745312,0,0,0,1
3.625958025337341,-0.5432091842317098,-0.4959903102745312,0,0,0,1
0.4362607253373409,-0.8532156142317099,-1.5073404802745312,0,0,0,1
-2.819209074662659,0.07083374576829013,-0.9916300502745312,0,0,0,1
-4.021010874662659,0.7307440157682902,-0.33669314027453123,0,0,0,1
-1.541038974662659,1.69801461576829,0.5440267197254688,0,0,0,1
-1.541038974662659,1.69801461576829,0.5440267197254688,0,0,0,1
-0.006412966862659106,0.7488403157682901,0.4713425897254688,0,0,0,1
2.3764691253373407,-0.29873256423170985,0.15756657972546878,0,0,0,1
2.6632829253373407,-1.63410698423171,-0.40849236027453123,0,0,0,1
2.6632829253373407,-1.63410698423171,-0.40849236027453123,0,0,0,1
-1.129933774662659,0.07563002576829013,-0.7622084302745312,0,0,0,1
-1.129933774662659,0.07563002576829013,-0.7622084302745312,0,0,0,1
-0.8825249746626591,0.6340390157682901,0.3859910197254688,0,0,0,1
0.28886652533734086,-0.5038284442317098,0.2507261897254688,0,0,0,1
0.28886652533734086,-0.5038284442317098,0.2507261897254688,0,0,0,1
2.044562725337341,-1.28624748423171,-0.4072814802745312,0,0,0,1
2.0283189253373406,-0.9187944842317098,-0.4353458602745312,0,0,0,1
0.7160124953373409,0.1512063657682901,-0.019758673274531225,0,0,0,1
-1.344099474662659,1.26416111576829,0.19984268972546876,0,0,0,1
-1.398719274662659,0.7243350157682902,0.3625045997254688,0,0,0,1
-1.398719274662659,0.7243350157682902,0.3625045997254688,0,0,0,1
-0.3387617946626591,-0.05789932423170987,0.30695866972546876,0,0,0,1
1.791091425337341,-1.27149068423171,-0.45286015027453125,0,0,0,1
1.738375225337341,-1.17385238423171,-0.37735835027453124,0,0,0,1
-0.6429161746626592,1.06912151576829,1.1295940197254688,0,0,0,1
-0.6429161746626592,1.06912151576829,1.1295940197254688,0,0,0,1
-0.6429161746626592,1.06912151576829,1.1295940197254688,0,0,0,1
0.5659642253373409,-0.7574407842317099,-1.5481676802745312,0,0,0,1
-1.177578474662659,-1.12412828423171,-0.4779969502745312,0,0,0,1
-1.177578474662659,-1.12412828423171,-0.4779969502745312,0,0,0,1
-0.3852248046626591,1.22766161576829,0.33593138972546877,0,0,0,1
4.146609725337341,-0.06275203423170987,1.3713222197254689,0,0,0,1
2.717975125337341,-0.4990830242317098,0.07446684972546877,0,0,0,1
2.717975125337341,-0.4990830242317098,0.07446684972546877,0,0,0,1
-1.170326674662659,-1.09469308423171,0.026363043725468775,0,0,0,1
-1.170326674662659,-1.09469308423171,0.026363043725468775,0,0,0,1
-4.573548774662659,1.48424301576829,0.08757212972546877,0,0,0,1
-2.5558890746626592,1.34064271576829,0.3583366897254688,0,0,0,1
1.184762525337341,-0.42176566423170986,-0.1323998602745312,0,0,0,1
1.184762525337341,-0.42176566423170986,-0.1323998602745312,0,0,0,1
4.6799340253373405,-0.37194920423170985,-0.39976862027453125,0,0,0,1
4.082549725337341,0.6393064157682902,-0.21553901027453123,0,0,0,1
3.1837439253373407,0.7890518457682901,-1.206887880274531,0,0,0,1
3.1837439253373407,0.7890518457682901,-1.206887880274531,0,0,0,1
-2.524670074662659,-0.8662402442317099,-2.1265072802745313,0,0,0,1
-2.524670074662659,-0.8662402442317099,-2.1265072802745313,0,0,0,1
-3.430929274662659,-0.5972148842317099,1.9172263197254689,0,0,0,1
-1.118512574662659,2.6884019157682904,2.9372458197254687,0,0,0,1
-1.118512574662659,2.6884019157682904,2.9372458197254687,0,0,0,1
5.061599225337341,0.06035238876829013,-0.6126486402745311,0,0,0,1
1.629547625337341,-2.74719978423171,-2.8392248802745312,0,0,0,1
1.629547625337341,-2.74719978423171,-2.8392248802745312,0,0,0,1
-0.7663140146626591,-1.94817828423171,-3.1074414802745314,0,0,0,1
2.2699466253373406,-1.1580489842317099,0.4136508697254688,0,0,0,1
2.2699466253373406,-1.1580489842317099,0.4136508697254688,0,0,0,1
2.1520267253373406,-2.06086588423171,-0.18678987027453123,0,0,0,1
-1.901108774662659,-0.9730227442317099,-0.5541370802745311,0,0,0,1
-0.8296961746626591,1.87333321576829,-0.3193810802745312,0,0,0,1
-0.8296961746626591,1.87333321576829,-0.3193810802745312,0,0,0,1
-0.8296961746626591,1.87333321576829,-0.3193810802745312,0,0,0,1
1.141454225337341,1.08926581576829,-0.6027324802745312,0,0,0,1
3.585862725337341,0.21858333576829012,-0.10976017027453124,0,0,0,1
3.585862725337341,0.21858333576829012,-0.10976017027453124,0,0,0,1
-1.650258574662659,-1.3801927842317099,-0.11645967027453123,0,0,0,1
-1.650258574662659,-1.3801927842317099,-0.11645967027453123,0,0,0,1
-1.650258574662659,-1.3801927842317099,-0.11645967027453123,0,0,0,1
-2.294876074662659,0.7611938157682901,1.6176164197254688,0,0,0,1
0.0016741913373408942,0.6600353157682901,1.267004919725469,0,0,0,1
0.0016741913373408942,0.6600353157682901,1.267004919725469,0,0,0,1
3.486012025337341,0.9162233657682901,-0.9928286402745312,0,0,0,1
0.8151211853373409,-0.1788217142317099,-2.2032620802745315,0,0,0,1
-0.9663939346626591,-1.7484827842317099,-1.851143180274531,0,0,0,1
-3.2155251746626594,-1.11239288423171,-0.07480690027453123,0,0,0,1
-3.2155251746626594,-1.11239288423171,-0.07480690027453123,0,0,0,1
0.5915131753373409,2.41095991576829,2.4818883197254684,0,0,0,1
1.840928525337341,0.12252095576829013,1.1875476197254689,0,0,0,1
1.840928525337341,0.12252095576829013,1.1875476197254689,0,0,0,1
2.666061925337341,-2.0588695842317097,-0.2626263802745312,0,0,0,1
-1.877893474662659,-0.15727157423170987,-1.672726280274531,0,0,0,1
-1.877893474662659,-0.15727157423170987,-1.672726280274531,0,0,0,1
-0.3934712246626591,1.53935531576829,-0.10181037027453123,0,0,0,1
-0.3934712246626591,1.53935531576829,-0.10181037027453123,0,0,0,1
0.4303679653373409,1.0881640157682901,0.3000393797254688,0,0,0,1
2.1335750253373407,-0.4871315842317099,0.3419823197254688,0,0,0,1
1.772435725337341,-0.18591457423170987,0.8428267197254689,0,0,0,1
-0.8638081346626592,0.4114889957682901,-0.04219115027453122,0,0,0,1
-1.006863074662659,0.7017816157682901,0.038938133725468775,0,0,0,1
0.49308252533734087,-1.95279248423171,-0.3766157302745312,0,0,0,1
0.9736256753373409,-3.3106216842317098,-0.8221912802745311,0,0,0,1
-0.6789259746626591,-2.1153087842317095,-1.3399610802745312,0,0,0,1
-0.18777511466265911,-0.1971856442317099,-0.8239261202745312,0,0,0,1
-0.6152710746626591,1.75263271576829,0.6371542197254688,0,0,0,1
-0.6152710746626591,1.75263271576829,0.6371542197254688,0,0,0,1
-2.1088127746626593,1.86082391576829,0.47365614972546877,0,0,0,1
-0.034527285662659106,-0.43921653423170987,-0.28609108027453123,0,0,0,1
2.2444215253373407,-1.41929758423171,-0.8612793802745312,0,0,0,1
1.142345925337341,0.1901825857682901,-1.511598180274531,0,0,0,1
-0.2765927146626591,-0.29652891423170985,-0.2739441802745312,0,0,0,1
-1.4305929746626591,-0.7689571242317098,0.6568230697254688,0,0,0,1
-1.4305929746626591,-0.7689571242317098,0.6568230697254688,0,0,0,1
0.22716094533734088,0.7455283557682901,1.0583029197254687,0,0,0,1
0.22716094533734088,0.7455283557682901,1.0583029197254687,0,0,0,1
0.22716094533734088,0.7455283557682901,1.0583029197254687,0,0,0,1
0.6974139253373409,-0.003025871231709871,-1.0711704802745312,0,0,0,1
1.590006325337341,-2.4523617842317096,-1.0662786802745312,0,0,0,1
1.590006325337341,-2.4523617842317096,-1.0662786802745312,0,0,0,1
0.6996197853373409,0.5058489657682902,-0.5555001802745312,0,0,0,1
0.6996197853373409,0.5058489657682902,-0.5555001802745312,0,0,0,1
0.6996197853373409,0.5058489657682902,-0.5555001802745312,0,0,0,1
-4.30127827466266,2.9154084157682902,1.5805717197254687,0,0,0,1
-0.2792544246626591,-2.1289889842317096,0.7965209197254688,0,0,0,1
-0.2792544246626591,-2.1289889842317096,0.7965209197254688,0,0,0,1
2.672203525337341,-1.46920938423171,-0.08767429027453123,0,0,0,1
2.672203525337341,-1.46920938423171,-0.08767429027453123,0,0,0,1
3.3818660253373407,-0.03458945123170987,-0.26996374027453124,0,0,0,1
-0.5500798046626592,1.0876715157682901,-0.4561310402745312,0,0,0,1
-2.1425528746626594,0.014095950768290129,-1.2156790802745312,0,0,0,1
-2.1566252746626593,-1.3565403842317099,-1.0157021802745312,0,0,0,1
-1.017147574662659,-0.5516528842317099,-0.5935319802745311,0,0,0,1
1.397025625337341,2.7143079157682903,1.2619073197254689,0,0,0,1
1.397025625337341,2.7143079157682903,1.2619073197254689,0,0,0,1
-0.0663828686626591,0.6507820157682901,0.9148970497254688,0,0,0,1
0.23731662533734088,-1.12920118423171,0.19960871972546876,0,0,0,1
0.6372332753373409,-1.52738918423171,-0.5234663202745312,0,0,0,1
0.3130231053373409,-0.12661658423170988,-1.4195764802745312,0,0,0,1
0.3130231053373409,-0.12661658423170988,-1.4195764802745312,0,0,0,1
0.23637057533734088,0.8884936757682902,-1.0570151802745311,0,0,0,1
0.3331637553373409,0.012506652768290128,-0.16894576027453123,0,0,0,1
-0.8221621346626591,-1.09405368423171,-0.13770861027453124,0,0,0,1
0.036630169337340895,-1.52175878423171,0.22261610972546877,0,0,0,1
0.036630169337340895,-1.52175878423171,0.22261610972546877,0,0,0,1
-2.285333174662659,2.30613851576829,0.12367335972546878,0,0,0,1
-2.285935874662659,2.29755641576829,0.11306996472546878,0,0,0,1
-2.285935874662659,2.29755641576829,0.11306996472546878,0,0,0,1
2.3077769253373406,-0.9733327442317099,-1.673518080274531,0,0,0,1
0.3636574953373409,0.7132054757682902,-0.0013661102745312253,0,0,0,1
-3.440942774662659,1.22580221576829,-0.17463547027453122,0,0,0,1
-0.5347227746626592,-1.76268008423171,-0.28273658027453125,0,0,0,1
-0.5347227746626592,-1.76268008423171,-0.28273658027453125,0,0,0,1
-0.8395418746626591,0.38282288576829016,-0.9974960402745312,0,0,0,1
1.545158925337341,2.0675831157682905,1.3384141197254689,0,0,0,1
0.3090319753373409,-1.24011978423171,-1.3751809802745312,0,0,0,1
3.445255725337341,-3.23779798423171,-2.9332993802745313,0,0,0,1
3.445255725337341,-3.23779798423171,-2.9332993802745313,0,0,0,1
-2.1002578746626592,2.0320973157682904,-1.2734442802745312,0,0,0,1
-3.782033474662659,4.24427221576829,1.0908441197254688,0,0,0,1
-2.598396774662659,0.03722168876829013,0.42496749972546877,0,0,0,1
-2.598396774662659,0.03722168876829013,0.42496749972546877,0,0,0,1
