acc_x,acc_y,acc_z,gyro_x,gyro_y,gyro_z,label
0.5756936253373409,0.9061622757682901,1.5009727197254688,0,0,0,1
1.419692525337341,0.25979359576829014,1.3206938197254687,0,0,0,1
1.508348925337341,-1.6831814842317099,-0.6110358802745312,0,0,0,1
1.508348925337341,-1.6831814842317099,-0.6110358802745312,0,0,0,1
-1.608544774662659,1.19935041576829,-1.3715263802745312,0,0,0,1
-1.608544774662659,1.19935041576829,-1.3715263802745312,0,0,0,1
0.07688571533734088,1.93913341576829,-1.4331455802745312,0,0,0,1
0.5613856253373409,0.9320654157682902,-2.0675303802745315,0,0,0,1
0.5613856253373409,0.9320654157682902,-2.0675303802745315,0,0,0,1
-2.7410578746626593,-0.33943925423170984,1.524621919725469,0,0,0,1
-1.033125374662659,0.8126077857682902,1.6377671197254688,0,0,0,1
1.839895725337341,-1.29107208423171,-2.7687680802745316,0,0,0,1
1.839895725337341,-1.29107208423171,-2.7687680802745316,0,0,0,1
0.3913073653373409,-0.6215456542317098,-2.2855694802745314,0,0,0,1
-1.090183674662659,1.54806141576829,-1.4493093802745312,0,0,0,1
-0.5504393446626591,-1.13275798423171,0.47812303972546877,0,0,0,1
0.6490016253373408,-0.7211700542317099,0.5568617197254688,0,0,0,1
0.5963502253373408,1.50267531576829,-1.0158792802745311,0,0,0,1
0.12970592533734088,-0.8052862842317099,0.30435993972546876,0,0,0,1
0.12970592533734088,-0.8052862842317099,0.30435993972546876,0,0,0,1
-0.7198662746626591,-0.5511954842317098,0.9091291197254688,0,0,0,1
-0.3715309946626591,-0.7056975142317099,0.8087544197254688,0,0,0,1
1.237782025337341,-0.9155896842317098,-0.7195576802745312,0,0,0,1
1.237782025337341,-0.9155896842317098,-0.7195576802745312,0,0,0,1
1.112907925337341,-1.19908548423171,-1.1743384802745311,0,0,0,1
0.6585030753373409,-1.43325538423171,-0.9869933402745312,0,0,0,1
-0.36707447466265913,0.5525929157682902,0.6508562897254688,0,0,0,1
-0.36707447466265913,0.5525929157682902,0.6508562897254688,0,0,0,1
0.9694342753373408,0.33288861576829015,0.24009289972546877,0,0,0,1
0.998553725337341,-0.07627992023170987,-0.3415443602745312,0,0,0,1
0.998553725337341,-0.07627992023170987,-0.3415443602745312,0,0,0,1
-0.40501927466265913,1.45276421576829,-0.39563028027453123,0,0,0,1
-0.3360810146626591,2.18536211576829,-0.3466776802745312,0,0,0,1
-0.029492838662659105,2.06353931576829,-0.5003420802745312,0,0,0,1
-0.029492838662659105,2.06353931576829,-0.5003420802745312,0,0,0,1
0.27837039533734087,0.7523535657682902,-0.8247148802745312,0,0,0,1
0.3625722053373409,-0.6452929842317099,-0.8245249802745311,0,0,0,1
0.15822173533734088,-0.9276436342317098,-0.17263571027453123,0,0,0,1
0.027212635337340894,-0.6617005242317099,0.22419097972546878,0,0,0,1
0.3814559253373409,-0.5688900842317098,0.5480511197254688,0,0,0,1
0.3814559253373409,-0.5688900842317098,0.5480511197254688,0,0,0,1
0.8006730253373409,-0.7369564842317099,0.6529699197254688,0,0,0,1
0.4396805953373409,-0.9657801242317099,0.31637641972546876,0,0,0,1
0.4396805953373409,-0.9657801242317099,0.31637641972546876,0,0,0,1
-0.13070724466265912,-0.5696175542317099,-0.008124323234531225,0,0,0,1
-0.13070724466265912,-0.5696175542317099,-0.008124323234531225,0,0,0,1
0.0404877823373409,0.08872624076829012,-0.34986684027453124,0,0,0,1
0.0404877823373409,0.08872624076829012,-0.34986684027453124,0,0,0,1
1.172034725337341,-0.09945271423170987,-0.3797323802745312,0,0,0,1
1.172034725337341,-0.09945271423170987,-0.3797323802745312,0,0,0,1
0.42511322533734086,0.08744642576829013,-0.06893679627453123,0,0,0,1
-0.022261126662659104,0.32357369576829015,0.27700481972546875,0,0,0,1
-0.16200207466265912,0.5510346157682902,0.2686870997254688,0,0,0,1
-0.16200207466265912,0.5510346157682902,0.2686870997254688,0,0,0,1
0.11827995033734089,0.48022674576829016,0.19288691972546876,0,0,0,1
0.3300423753373409,0.3552483457682901,-0.048893602274531225,0,0,0,1
0.3300423753373409,0.3552483457682901,-0.048893602274531225,0,0,0,1
0.48066856533734087,0.44815841576829013,0.049825755725468775,0,0,0,1
0.6014132653373409,-0.04499368023170987,-0.18613407027453122,0,0,0,1
0.6014132653373409,-0.04499368023170987,-0.18613407027453122,0,0,0,1
-0.15220497466265911,-0.33501968423170986,0.20877655972546877,0,0,0,1
-0.1720948046626591,-0.5998381842317099,0.6427120897254688,0,0,0,1
-0.1720948046626591,-0.5998381842317099,0.6427120897254688,0,0,0,1
0.48859740533734086,-0.48371420423170985,0.10408749972546877,0,0,0,1
0.48859740533734086,-0.48371420423170985,0.10408749972546877,0,0,0,1
1.133194425337341,-0.20899297423170987,-0.7860727802745312,0,0,0,1
0.5163827253373409,0.10689056576829013,-0.7290280802745311,0,0,0,1
-0.24049518466265912,0.7778138657682901,-0.5968524802745312,0,0,0,1
-0.09133575466265911,0.9719040557682902,-0.033411951274531226,0,0,0,1
0.8667016253373409,0.26764691576829014,0.3407651497254688,0,0,0,1
0.8667016253373409,0.26764691576829014,0.3407651497254688,0,0,0,1
0.8059668653373409,-0.2181670142317099,0.024704722725468777,0,0,0,1
0.8059668653373409,-0.2181670142317099,0.024704722725468777,0,0,0,1
0.5584931253373409,-0.3506077342317099,-0.11785486527453123,0,0,0,1
-0.2674908446626591,-0.08296535423170986,-0.22681740027453123,0,0,0,1
0.17918349533734088,-0.35719470423170985,0.2949250597254688,0,0,0,1
0.6913876653373409,-0.49921653423170986,0.5322375197254688,0,0,0,1
1.141709825337341,-0.30562261423170983,0.42526819972546875,0,0,0,1
1.141709825337341,-0.30562261423170983,0.42526819972546875,0,0,0,1
1.115699325337341,-0.009282004231709872,-0.055501610274531224,0,0,0,1
0.3008370553373409,0.2357980957682901,-0.5384704202745312,0,0,0,1
0.3008370553373409,0.2357980957682901,-0.5384704202745312,0,0,0,1
-0.3728356246626591,-0.07487500823170987,-0.4547692002745312,0,0,0,1
-0.3728356246626591,-0.07487500823170987,-0.4547692002745312,0,0,0,1
-0.14466999466265912,-0.4209347842317099,-0.4689187802745312,0,0,0,1
-0.14466999466265912,-0.4209347842317099,-0.4689187802745312,0,0,0,1
0.5432400853373409,-0.42598502423170986,0.20389631972546876,0,0,0,1
1.142903825337341,-0.42044198423170986,0.38592293972546876,0,0,0,1
0.9015279253373409,-0.20627115423170989,0.5970849697254689,0,0,0,1
0.9015279253373409,-0.20627115423170989,0.5970849697254689,0,0,0,1
-0.37979744466265913,0.13517381576829013,-0.04154965427453122,0,0,0,1
-0.06834362466265911,-0.2164798242317099,-0.3757278302745312,0,0,0,1
0.3119044453373409,0.05648957576829013,-0.37904441027453123,0,0,0,1
0.5330157253373409,0.25724801576829015,-0.10088620027453123,0,0,0,1
1.240397025337341,-0.04361127023170987,0.3848046897254688,0,0,0,1
0.8609261653373409,-0.23393742423170988,0.17807974972546878,0,0,0,1
0.8609261653373409,-0.23393742423170988,0.17807974972546878,0,0,0,1
0.8609261653373409,-0.23393742423170988,0.17807974972546878,0,0,0,1
0.8609261653373409,-0.23393742423170988,0.17807974972546878,0,0,0,1
0.4516368053373409,-0.30033383423170984,-0.07137254027453123,0,0,0,1
0.4412675053373409,-0.35197402423170987,-0.24646607027453124,0,0,0,1
0.2660632253373409,0.5720224157682902,0.0020329047254687748,0,0,0,1
0.2660632253373409,0.5720224157682902,0.0020329047254687748,0,0,0,1
0.8802991253373409,-0.3669342842317099,-0.15787712027453124,0,0,0,1
0.2900529053373409,-0.26469383423170983,-0.4467116002745312,0,0,0,1
0.2900529053373409,-0.26469383423170983,-0.4467116002745312,0,0,0,1
-0.48426102466265913,0.1633001457682901,-0.2640350802745312,0,0,0,1
-0.48426102466265913,0.1633001457682901,-0.2640350802745312,0,0,0,1
-0.8525061446626591,0.27101405576829013,-0.13512108027453124,0,0,0,1
-0.8525061446626591,0.27101405576829013,-0.13512108027453124,0,0,0,1
-0.45287655466265914,-0.9985532842317099,-0.07775733027453123,0,0,0,1
0.8334813253373409,-0.7272672442317099,0.15899863972546877,0,0,0,1
1.532453125337341,0.16856461576829013,0.6436865597254688,0,0,0,1
1.424520025337341,1.00810791576829,0.5882154197254689,0,0,0,1
1.032008625337341,1.31841211576829,0.19149860972546878,0,0,0,1
1.032008625337341,1.31841211576829,0.19149860972546878,0,0,0,1
0.9481759253373409,0.8925888757682902,-0.47829154027453125,0,0,0,1
0.9481759253373409,0.8925888757682902,-0.47829154027453125,0,0,0,1
0.5813298253373409,0.43405945576829014,-1.0062346802745312,0,0,0,1
0.8484015653373409,0.8077794157682902,-0.6479969302745312,0,0,0,1
0.9660115253373409,1.04479021576829,0.08422955972546876,0,0,0,1
0.5174470253373409,0.6733227157682902,0.3723392197254688,0,0,0,1
2.443266425337341,-0.1403548842317099,0.17491515972546878,0,0,0,1
2.7115855253373407,0.25991194576829013,-0.3087474402745312,0,0,0,1
2.7115855253373407,0.25991194576829013,-0.3087474402745312,0,0,0,1
0.9413466653373409,0.31014051576829016,-1.299976880274531,0,0,0,1
-1.060025674662659,0.24697706576829012,-0.7836340802745312,0,0,0,1
-1.060025674662659,0.24697706576829012,-0.7836340802745312,0,0,0,1
-1.060025674662659,0.24697706576829012,-0.7836340802745312,0,0,0,1
0.22819854533734088,-0.4371385642317099,-0.29056238027453124,0,0,0,1
1.481128225337341,-0.7639281842317098,-0.4499521802745312,0,0,0,1
1.706883925337341,-1.02773018423171,-0.19344178027453124,0,0,0,1
1.706883925337341,-1.02773018423171,-0.19344178027453124,0,0,0,1
1.706883925337341,-1.02773018423171,-0.19344178027453124,0,0,0,1
0.6998505753373409,-0.8567975842317098,-0.06758252027453122,0,0,0,1
-1.520819174662659,0.26987366576829014,-0.28628838027453124,0,0,0,1
-1.331397474662659,0.28909391576829013,-0.5063795802745312,0,0,0,1
-0.5165791346626591,0.1991374657682901,-0.7464982802745311,0,0,0,1
0.5023408253373409,0.054150599768290134,-1.229117580274531,0,0,0,1
1.261459825337341,-0.1368784442317099,-1.2559897802745312,0,0,0,1
1.261459825337341,-0.1368784442317099,-1.2559897802745312,0,0,0,1
0.9022565253373409,0.04626307276829013,-1.5328526802745313,0,0,0,1
-0.6219963746626591,0.6602101157682901,-1.2175416802745311,0,0,0,1
-0.6219963746626591,0.6602101157682901,-1.2175416802745311,0,0,0,1
-0.6219963746626591,0.6602101157682901,-1.2175416802745311,0,0,0,1
-0.8079800446626592,0.7401902157682901,-1.3646488802745311,0,0,0,1
-0.5554756746626591,0.5069572157682901,-1.1307208802745312,0,0,0,1
0.2707543553373409,0.45592405576829015,-1.4303514802745312,0,0,0,1
0.5769591253373408,0.29475064576829013,-1.1153754802745313,0,0,0,1
-0.053626521662659105,0.29405214576829014,-0.6774562802745312,0,0,0,1
-0.5150751746626591,0.34981437576829016,-0.5901403802745312,0,0,0,1
-0.5150751746626591,0.34981437576829016,-0.5901403802745312,0,0,0,1
-0.49379490466265913,0.22376658576829012,-0.3729864402745312,0,0,0,1
-0.49379490466265913,0.22376658576829012,-0.3729864402745312,0,0,0,1
-0.9846701746626592,-0.6543758842317099,-0.3492928502745312,0,0,0,1
-0.9846701746626592,-0.6543758842317099,-0.3492928502745312,0,0,0,1
-0.8467926746626591,-1.12227128423171,-0.2778888102745312,0,0,0,1
-0.8467926746626591,-1.12227128423171,-0.2778888102745312,0,0,0,1
0.18539668533734088,-1.05853408423171,0.41923071972546877,0,0,0,1
0.8033137253373409,-0.2838316342317099,0.8800946197254689,0,0,0,1
0.8033137253373409,-0.2838316342317099,0.8800946197254689,0,0,0,1
1.115873825337341,0.41327326576829015,0.3419598197254688,0,0,0,1
1.115873825337341,0.41327326576829015,0.3419598197254688,0,0,0,1
1.3662820253373409,-0.6962150842317099,-0.27037358027453123,0,0,0,1
0.4278988953373409,-1.18386938423171,-0.22526020027453122,0,0,0,1
1.772786625337341,-0.7559029242317099,0.8552163197254689,0,0,0,1
1.725414725337341,-1.08784368423171,0.4201291197254688,0,0,0,1
1.725414725337341,-1.08784368423171,0.4201291197254688,0,0,0,1
1.725414725337341,-1.08784368423171,0.4201291197254688,0,0,0,1
1.550060725337341,-1.42237778423171,-0.032574904274531226,0,0,0,1
-1.140182974662659,0.7712029157682901,0.46693354972546874,0,0,0,1
-1.140182974662659,0.7712029157682901,0.46693354972546874,0,0,0,1
-1.573540174662659,1.23243131576829,0.5642125897254688,0,0,0,1
1.941636625337341,-0.8269661442317099,-0.4459897002745312,0,0,0,1
2.103441725337341,-1.08307888423171,-0.46281460027453125,0,0,0,1
2.103441725337341,-1.08307888423171,-0.46281460027453125,0,0,0,1
2.103441725337341,-1.08307888423171,-0.46281460027453125,0,0,0,1
-0.3984055346626591,0.46290561576829015,0.6198223197254689,0,0,0,1
-1.786037874662659,1.20952891576829,0.6582551897254688,0,0,0,1
-1.714374074662659,1.22348901576829,0.8482750197254688,0,0,0,1
-0.5197186346626591,0.5127852157682902,0.21511625972546877,0,0,0,1
-0.5197186346626591,0.5127852157682902,0.21511625972546877,0,0,0,1
1.372786025337341,-0.6365791842317099,-0.7523633802745312,0,0,0,1
1.372786025337341,-0.6365791842317099,-0.7523633802745312,0,0,0,1
0.3911795753373409,-0.24628694423170988,-0.24768129027453123,0,0,0,1
-1.577141274662659,0.25548275576829016,-0.10276721527453123,0,0,0,1
-1.577141274662659,0.25548275576829016,-0.10276721527453123,0,0,0,1
-1.371301174662659,0.5833595157682901,0.24109882972546878,0,0,0,1
-1.371301174662659,0.5833595157682901,0.24109882972546878,0,0,0,1
1.337609725337341,0.0026849393682901288,-1.4844460802745312,0,0,0,1
1.337609725337341,0.0026849393682901288,-1.4844460802745312,0,0,0,1
0.6503434253373409,-0.06544960423170987,-1.202260380274531,0,0,0,1
-1.612548374662659,-0.10073746423170987,-1.315018880274531,0,0,0,1
-1.958508974662659,-0.42018101423170984,-1.2544833802745312,0,0,0,1
0.5598035253373409,-1.00611138423171,-0.7296231102745312,0,0,0,1
2.4258704253373407,-1.18989728423171,-0.4918571102745312,0,0,0,1
2.4258704253373407,-1.18989728423171,-0.4918571102745312,0,0,0,1
-0.22564266466265911,0.5324119557682901,0.35245316972546875,0,0,0,1
-0.22564266466265911,0.5324119557682901,0.35245316972546875,0,0,0,1
-1.217232174662659,0.3995247357682901,0.9835439597254688,0,0,0,1
-1.801661974662659,-0.22004191423170988,0.7054599797254688,0,0,0,1
-1.628009274662659,-1.07561648423171,0.08922075972546877,0,0,0,1
1.914205125337341,-0.33108411423170986,-0.07493520027453122,0,0,0,1
1.914205125337341,-0.33108411423170986,-0.07493520027453122,0,0,0,1
1.894991425337341,0.44471381576829017,-0.047135928274531225,0,0,0,1
1.894991425337341,0.44471381576829017,-0.047135928274531225,0,0,0,1
0.6832080253373409,0.44719221576829016,-0.15405199027453123,0,0,0,1
-0.0783800946626591,0.08633904576829013,0.05874962972546877,0,0,0,1
