acc_x,acc_y,acc_z,gyro_x,gyro_y,gyro_z,label
1.138312825337341,0.7906934757682902,0.07306798972546877,0,0,0,1
0.9469752253373409,0.6712631157682901,-0.3023250402745312,0,0,0,1
0.9469752253373409,0.6712631157682901,-0.3023250402745312,0,0,0,1
0.30013610533734086,0.13114382576829012,-0.4881606402745312,0,0,0,1
-1.170657574662659,-0.27878488423170983,-0.6746657202745312,0,0,0,1
-0.1857714446626591,0.08621717576829013,-0.14064708027453124,0,0,0,1
2.102654025337341,-0.05016199923170987,-0.12278774527453123,0,0,0,1
2.102654025337341,-0.05016199923170987,-0.12278774527453123,0,0,0,1
1.651112125337341,0.34896298576829016,0.10770567972546877,0,0,0,1
-1.942022774662659,0.48990758576829013,0.24549683972546876,0,0,0,1
-1.942022774662659,0.48990758576829013,0.24549683972546876,0,0,0,1
-1.942022774662659,0.48990758576829013,0.24549683972546876,0,0,0,1
0.9923529753373409,-0.13988201423170987,-0.46848062027453125,0,0,0,1
1.849401925337341,0.04849271776829013,-0.5114407802745312,0,0,0,1
1.056803225337341,0.24424736576829012,-0.5653143202745312,0,0,0,1
-0.2522520846626591,0.09669649176829014,-0.008278639674531225,0,0,0,1
-0.2522520846626591,0.09669649176829014,-0.008278639674531225,0,0,0,1
-0.8787541246626591,0.26550145576829015,0.11750491972546878,0,0,0,1
0.39261199533734087,0.18635484576829012,0.23972090972546878,0,0,0,1
0.39261199533734087,0.18635484576829012,0.23972090972546878,0,0,0,1
1.178664725337341,-0.08746735423170987,-0.27214041027453123,0,0,0,1
1.178664725337341,-0.08746735423170987,-0.27214041027453123,0,0,0,1
-0.05671451866265911,0.32025887576829015,-0.19139651027453122,0,0,0,1
-0.8283591146626591,0.7480438557682901,0.04966470472546878,0,0,0,1
-0.8283591146626591,0.7480438557682901,0.04966470472546878,0,0,0,1
1.732616925337341,-0.2590292242317099,-0.36155478027453125,0,0,0,1
1.732616925337341,-0.2590292242317099,-0.36155478027453125,0,0,0,1
1.139709925337341,-0.08339588023170987,-0.44769302027453123,0,0,0,1
-0.4523758746626591,0.2103997357682901,-0.20251325027453124,0,0,0,1
-1.060288874662659,0.16916112576829012,-0.019991787274531225,0,0,0,1
-0.8184037046626591,-0.02162214023170987,0.3055570997254688,0,0,0,1
-0.6285557746626591,-0.005646277231709872,0.20708831972546876,0,0,0,1
0.1416764453373409,-0.3381553842317099,-0.03214636627453123,0,0,0,1
1.692639825337341,-0.33329418423170987,-0.14321736027453122,0,0,0,1
-1.084725874662659,0.8387692757682902,0.07967885972546877,0,0,0,1
-1.084725874662659,0.8387692757682902,0.07967885972546877,0,0,0,1
-1.859911874662659,0.5536289157682901,-0.007876427514531225,0,0,0,1
-1.859911874662659,0.5536289157682901,-0.007876427514531225,0,0,0,1
0.3332200253373409,0.37467406576829015,-0.44143954027453125,0,0,0,1
1.325950125337341,-0.12655989423170988,-0.4705387802745312,0,0,0,1
1.343254625337341,-0.7144143842317099,-0.6197909402745312,0,0,0,1
-1.115048874662659,-0.12929339423170988,-0.06272629027453122,0,0,0,1
-1.115048874662659,-0.12929339423170988,-0.06272629027453122,0,0,0,1
-1.788476974662659,0.5829524157682902,0.3526914397254688,0,0,0,1
0.18740417533734088,-0.1521020542317099,-0.04302409427453122,0,0,0,1
0.8590712753373408,-0.31078891423170985,-0.6835898502745311,0,0,0,1
0.8590712753373408,-0.31078891423170985,-0.6835898502745311,0,0,0,1
0.8172869853373409,0.7260822157682901,-0.7903725202745312,0,0,0,1
-1.660026974662659,-0.4931112342317099,-0.40240028027453123,0,0,0,1
0.7983260253373409,-1.16169938423171,-0.029194028274531224,0,0,0,1
0.7983260253373409,-1.16169938423171,-0.029194028274531224,0,0,0,1
2.7031302253373406,-1.46804558423171,-0.7691327802745311,0,0,0,1
2.7031302253373406,-1.46804558423171,-0.7691327802745311,0,0,0,1
1.427409625337341,-2.4540128842317097,0.3709703397254688,0,0,0,1
0.1734500053373409,-1.79620718423171,1.4683993197254688,0,0,0,1
-1.208083574662659,-0.25888775423170984,1.2427781197254688,0,0,0,1
-0.9227995746626592,1.32896541576829,0.6210853697254688,0,0,0,1
0.2657780853373409,1.38528381576829,0.3169133897254688,0,0,0,1
0.6205458753373408,1.45165301576829,0.10890480972546877,0,0,0,1
0.6205458753373408,1.45165301576829,0.10890480972546877,0,0,0,1
-0.8370299146626591,-0.01943894923170987,0.030307739725468772,0,0,0,1
-0.8370299146626591,-0.01943894923170987,0.030307739725468772,0,0,0,1
2.0248933253373407,-0.24374630423170987,-0.7062205402745312,0,0,0,1
2.0248933253373407,-0.24374630423170987,-0.7062205402745312,0,0,0,1
2.028351325337341,-0.23323368423170987,-0.6806043802745312,0,0,0,1
4.463526225337341,0.04778720776829013,-0.8288123802745312,0,0,0,1
2.879824225337341,0.8880304157682901,-1.1928834802745312,0,0,0,1
-2.401206474662659,-0.2434242342317099,1.1316314197254689,0,0,0,1
-2.400691474662659,-0.25233791423170987,1.1373966197254688,0,0,0,1
2.509551525337341,0.5180938157682902,1.4745268197254688,0,0,0,1
2.509551525337341,0.5180938157682902,1.4745268197254688,0,0,0,1
2.5100903253373406,0.5213116157682901,1.4783603197254689,0,0,0,1
-0.005544169562659106,-0.41888661423170986,0.17716666972546877,0,0,0,1
-1.519960874662659,0.1738866857682901,0.23001160972546877,0,0,0,1
-2.3602981746626592,1.51480511576829,-0.048210056274531225,0,0,0,1
-2.3602981746626592,1.51480511576829,-0.048210056274531225,0,0,0,1
1.180472825337341,0.2403290157682901,-0.31270531027453125,0,0,0,1
1.180472825337341,0.2403290157682901,-0.31270531027453125,0,0,0,1
0.3843054953373409,-0.28074098423170984,0.9357627197254689,0,0,0,1
0.3843054953373409,-0.28074098423170984,0.9357627197254689,0,0,0,1
-0.6907210146626591,0.36256249576829014,1.7939610197254687,0,0,0,1
-1.554807174662659,0.6723269157682902,1.9848282197254687,0,0,0,1
-0.1615166546626591,-0.07458565423170987,0.7379801197254688,0,0,0,1
1.918031225337341,-0.5763669842317098,-0.3741313502745312,0,0,0,1
1.918031225337341,-0.5763669842317098,-0.3741313502745312,0,0,0,1
0.7069878753373409,0.05812564076829013,-0.7801145802745312,0,0,0,1
-0.6585392746626592,0.49804179576829016,-0.4084879502745312,0,0,0,1
-1.652852474662659,0.4373754457682901,0.14117338972546878,0,0,0,1
-1.652852474662659,0.38817711576829017,0.7421831197254688,0,0,0,1
-1.869151074662659,0.38817711576829017,0.7421831197254688,0,0,0,1
-0.8500675746626591,0.20396064576829012,0.8678156197254688,0,0,0,1
2.1672501253373406,-0.19345608423170987,0.7352865197254689,0,0,0,1
-0.09595440466265912,-0.6665943842317098,0.4317251197254688,0,0,0,1
-1.327413974662659,-0.48774413423170987,0.46159508972546875,0,0,0,1
-1.327413974662659,-0.48774413423170987,0.46159508972546875,0,0,0,1
-1.688534274662659,0.14705130576829012,0.2865985197254688,0,0,0,1
-1.034682774662659,0.6287099157682902,0.18946411972546878,0,0,0,1
1.201821825337341,0.01567532476829013,-0.0020538882745312253,0,0,0,1
1.201821825337341,0.01567532476829013,-0.0020538882745312253,0,0,0,1
1.201821825337341,0.01567532476829013,-0.0020538882745312253,0,0,0,1
1.282366325337341,-0.2318176842317099,0.09112902972546877,0,0,0,1
-1.085882674662659,0.8250423157682901,1.0738550197254688,0,0,0,1
-0.7342171746626591,0.27419971576829016,0.7680926197254688,0,0,0,1
0.13218261533734088,-0.8015893842317099,0.5003632197254688,0,0,0,1
0.7589841253373409,-0.44811618423170985,0.08423712972546878,0,0,0,1
-0.18272446466265913,0.6173962157682902,0.19001826972546876,0,0,0,1
-0.18272446466265913,0.6173962157682902,0.19001826972546876,0,0,0,1
-0.7325930446626591,0.11021443076829013,0.020060984725468772,0,0,0,1
-0.7325930446626591,0.11021443076829013,0.020060984725468772,0,0,0,1
-0.4230646946626591,-0.16657130423170988,0.34560605972546876,0,0,0,1
0.4231772553373409,0.9356000157682901,0.7920911197254689,0,0,0,1
0.9081587953373409,0.5999201757682902,0.4646576897254688,0,0,0,1
0.9081587953373409,0.5999201757682902,0.4646576897254688,0,0,0,1
1.358652625337341,-0.3225103442317099,0.36091941972546876,0,0,0,1
1.358652625337341,-0.3225103442317099,0.36091941972546876,0,0,0,1
0.6600108253373409,-0.6344782842317098,-0.053594203274531224,0,0,0,1
-0.7275128246626591,-0.49338815423170984,0.6231493597254688,0,0,0,1
-0.7275128246626591,-0.49338815423170984,0.6231493597254688,0,0,0,1
0.9152837253373409,-0.3669807842317099,0.6571684797254689,0,0,0,1
0.9152837253373409,-0.3669807842317099,0.6571684797254689,0,0,0,1
1.606543125337341,-0.11385719423170987,0.30721958972546876,0,0,0,1
-0.20784996466265912,-0.45191324423170987,0.11703690972546878,0,0,0,1
-0.20784996466265912,-0.45191324423170987,0.11703690972546878,0,0,0,1
-1.523948174662659,-0.25276870423170983,0.40038531972546876,0,0,0,1
-1.371434674662659,0.30933444576829017,0.4546070197254688,0,0,0,1
0.10607482533734089,0.6378853157682901,0.4047177997254688,0,0,0,1
2.460264725337341,-0.31260750423170985,-0.24920341027453122,0,0,0,1
2.460264725337341,-0.31260750423170985,-0.24920341027453122,0,0,0,1
1.398635425337341,0.06636111576829012,0.08945872972546877,0,0,0,1
1.398635425337341,0.06636111576829012,0.08945872972546877,0,0,0,1
0.023819462337340894,-0.5024647542317099,-0.10017750027453123,0,0,0,1
0.023819462337340894,-0.5024647542317099,-0.10017750027453123,0,0,0,1
1.669524725337341,-0.12603412423170987,-0.28937760027453124,0,0,0,1
1.669524725337341,-0.12603412423170987,-0.28937760027453124,0,0,0,1
2.191180725337341,0.12583345576829014,-0.019585938774531225,0,0,0,1
-0.17701290466265912,-0.29271418423170986,-0.16045019027453122,0,0,0,1
-1.881201774662659,-0.47520456423170987,-0.13487515027453123,0,0,0,1
-1.881201774662659,-0.47520456423170987,-0.13487515027453123,0,0,0,1
-1.317894474662659,-0.011809330731709871,0.36435469972546874,0,0,0,1
-1.317894474662659,-0.011809330731709871,0.36435469972546874,0,0,0,1
1.756791625337341,0.22841777576829012,0.6411998197254688,0,0,0,1
1.785721325337341,0.49494923576829014,0.49414005972546876,0,0,0,1
0.7114176953373409,0.5928150157682901,0.47085191972546875,0,0,0,1
-0.3155979946626591,0.1601882957682901,0.33443331972546875,0,0,0,1
0.7114176953373409,0.5928150157682901,0.47085191972546875,0,0,0,1
-0.9631647746626592,-0.41702458423170985,0.17882197972546876,0,0,0,1
-0.7670855346626592,0.12911101576829012,0.18558689972546877,0,0,0,1
-0.7670855346626592,0.12911101576829012,0.18558689972546877,0,0,0,1
0.4922833653373409,0.2340407257682901,0.2797449197254688,0,0,0,1
1.319620625337341,0.14450979576829012,0.16172617972546877,0,0,0,1
1.319620625337341,0.14450979576829012,0.16172617972546877,0,0,0,1
0.3856883253373409,-0.6396805442317098,0.006865529725468775,0,0,0,1
0.3856883253373409,-0.6396805442317098,0.006865529725468775,0,0,0,1
0.3406605853373409,0.6876041457682901,0.6267792197254688,0,0,0,1
0.07878638933734089,-0.15840406423170988,-0.5678436802745311,0,0,0,1
-0.9764332746626591,-0.6241855442317099,0.00021597572546877466,0,0,0,1
-0.9764332746626591,-0.6241855442317099,0.00021597572546877466,0,0,0,1
0.3304305253373409,0.6109607157682901,0.48061048972546877,0,0,0,1
1.679719425337341,0.9512866157682901,0.4611377197254688,0,0,0,1
1.070518025337341,-0.37351320423170986,-0.06143370427453122,0,0,0,1
0.15677024533734088,-0.6751615842317099,-0.04008034027453122,0,0,0,1
0.15677024533734088,-0.6751615842317099,-0.04008034027453122,0,0,0,1
-0.8446984146626592,0.04194739076829013,0.04262289272546878,0,0,0,1
-1.416305974662659,0.6485573157682901,0.013990609725468773,0,0,0,1
-0.4612603046626591,0.4620406557682901,-0.009829433274531226,0,0,0,1
1.071268525337341,-0.10602286423170987,-0.07864341027453123,0,0,0,1
1.843966025337341,-0.39458600423170986,-0.11082226027453122,0,0,0,1
1.806036525337341,-0.14269122423170988,0.016528485725468774,0,0,0,1
1.806036525337341,-0.14269122423170988,0.016528485725468774,0,0,0,1
1.068545825337341,0.04175743076829013,0.4985585197254688,0,0,0,1
-0.5278677746626591,0.7804366157682902,0.2578434897254688,0,0,0,1
-0.5278677746626591,0.7804366157682902,0.2578434897254688,0,0,0,1
-0.5278677746626591,0.7804366157682902,0.2578434897254688,0,0,0,1
0.39658500533734087,-0.5019371842317099,-0.5426067402745312,0,0,0,1
0.1505274953373409,-1.12315638423171,-0.5257197802745311,0,0,0,1
0.1086735853373409,-0.02111631323170987,-0.08053276027453123,0,0,0,1
0.1086735853373409,-0.02111631323170987,-0.08053276027453123,0,0,0,1
0.1086735853373409,-0.02111631323170987,-0.08053276027453123,0,0,0,1
0.0762343553373409,0.7046005157682902,0.34425654972546876,0,0,0,1
-0.8483853146626591,-0.32423834423170983,0.15517192972546878,0,0,0,1
-0.8483853146626591,-0.32423834423170983,0.15517192972546878,0,0,0,1
-0.8483853146626591,-0.32423834423170983,0.15517192972546878,0,0,0,1
-0.4628968046626591,0.41525025576829017,0.009050069725468773,0,0,0,1
0.3909697653373409,0.0024416033982901284,-0.6737266802745312,0,0,0,1
0.3909707253373409,0.0033744309682901285,-0.6741170802745312,0,0,0,1
