acc_x,acc_y,acc_z,gyro_x,gyro_y,gyro_z,label
0.996942025337341,1.46149171576829,1.7269915197254688,0,0,0,1
1.355983225337341,-1.01238518423171,-0.2659411102745312,0,0,0,1
1.355983225337341,-1.01238518423171,-0.2659411102745312,0,0,0,1
0.7572217253373409,-1.23748928423171,-0.7658616802745312,0,0,0,1
0.7572217253373409,-1.23748928423171,-0.7658616802745312,0,0,0,1
0.5568909853373409,1.07226931576829,-0.8414643802745312,0,0,0,1
0.5568909853373409,1.07226931576829,-0.8414643802745312,0,0,0,1
0.5568909853373409,1.07226931576829,-0.8414643802745312,0,0,0,1
-0.2082924746626591,-1.21134018423171,0.03711643672546878,0,0,0,1
-0.09100673966265911,-1.25187828423171,0.5131557897254688,0,0,0,1
-0.09100673966265911,-1.25187828423171,0.5131557897254688,0,0,0,1
0.5279593653373409,-0.4727768842317099,1.1733932197254688,0,0,0,1
0.4791703253373409,0.7057808857682901,0.11609419972546876,0,0,0,1
0.6956944653373409,-0.3934172242317099,-0.6039473802745312,0,0,0,1
0.6956944653373409,-0.3934172242317099,-0.6039473802745312,0,0,0,1
0.4166388653373409,-1.18560488423171,-1.0933657802745311,0,0,0,1
0.0650124713373409,-0.7309198842317098,-1.3892216802745312,0,0,0,1
0.6388325853373409,0.33881394576829016,-0.7480167802745312,0,0,0,1
1.298803825337341,1.13962231576829,-0.2532686902745312,0,0,0,1
1.132684225337341,1.21620851576829,0.12336673972546877,0,0,0,1
0.4151377853373409,0.06615551576829012,0.3558317397254688,0,0,0,1
-0.2894844746626591,-1.2054107842317099,0.49540271972546873,0,0,0,1
-0.2894844746626591,-1.2054107842317099,0.49540271972546873,0,0,0,1
-0.2903399346626591,-0.3248785242317099,0.17264952972546876,0,0,0,1
-0.2903399346626591,-0.3248785242317099,0.17264952972546876,0,0,0,1
1.072489325337341,0.29874526576829014,-0.13916889027453122,0,0,0,1
0.8656487653373409,0.04725470576829013,-0.5666285802745312,0,0,0,1
0.7142577253373409,0.25591178576829016,-0.35685006027453126,0,0,0,1
-0.3226618746626591,-0.18721486423170988,0.24674298972546876,0,0,0,1
-0.2808194046626591,-0.5052085342317099,0.2594779397254688,0,0,0,1
-0.2808194046626591,-0.5052085342317099,0.2594779397254688,0,0,0,1
1.177718625337341,-0.13105778423170988,-0.5972124802745312,0,0,0,1
0.2873196753373409,0.009307536768290128,-0.8716175302745311,0,0,0,1
0.1702323153373409,-0.4553309542317099,-0.6924603302745311,0,0,0,1
0.0013041657373408944,-0.05651370823170987,-0.4538591802745312,0,0,0,1
0.004390255337340895,0.48359361576829013,0.006091801725468775,0,0,0,1
0.3110556753373409,0.35177655576829014,0.3702460197254688,0,0,0,1
0.3110556753373409,0.35177655576829014,0.3702460197254688,0,0,0,1
0.3410325253373409,0.12481403576829013,0.41067155972546876,0,0,0,1
0.11479713133734089,-0.04387108623170987,0.24486079972546876,0,0,0,1
0.48131610533734087,-0.2075021542317099,-0.051148088274531225,0,0,0,1
1.052542225337341,-0.26111070423170984,-0.35114464027453124,0,0,0,1
0.1921210453373409,0.04101231276829013,-0.7111411402745311,0,0,0,1
0.08109523533734089,0.31301079576829016,-0.5816233502745312,0,0,0,1
0.3208651753373409,0.36829488576829017,-0.22894564027453124,0,0,0,1
0.4134984253373409,0.15873794576829012,-0.10589150027453123,0,0,0,1
0.6747079253373409,-0.45815013423170986,0.4333539197254688,0,0,0,1
0.6747079253373409,-0.45815013423170986,0.4333539197254688,0,0,0,1
0.6747079253373409,-0.45815013423170986,0.4333539197254688,0,0,0,1
0.6747079253373409,-0.45815013423170986,0.4333539197254688,0,0,0,1
-0.3796400746626591,0.004118162868290129,0.12737717972546878,0,0,0,1
-0.3796400746626591,0.004118162868290129,0.12737717972546878,0,0,0,1
-0.3796400746626591,0.004118162868290129,0.12737717972546878,0,0,0,1
0.5439810953373408,0.46589948576829016,0.06853040972546877,0,0,0,1
1.931831825337341,1.0038169157682901,-0.4582143802745312,0,0,0,1
1.931831825337341,1.0038169157682901,-0.4582143802745312,0,0,0,1
0.7421422253373409,0.36701683576829014,-0.7024983502745312,0,0,0,1
-0.8839144746626592,-0.31303318423170984,-0.7040356802745312,0,0,0,1
-2.396056274662659,-0.9605820842317099,-0.9109517802745312,0,0,0,1
-2.396056274662659,-0.9605820842317099,-0.9109517802745312,0,0,0,1
-1.724467774662659,-2.38418408423171,-0.20511583027453123,0,0,0,1
-0.7248301346626591,-1.70398398423171,0.5839706197254688,0,0,0,1
0.5352025253373409,-0.13191441423170988,1.2980939197254688,0,0,0,1
2.5532870253373408,1.12019521576829,1.2887754197254688,0,0,0,1
3.510789425337341,1.16245351576829,0.4629617197254688,0,0,0,1
2.704727725337341,0.8427700157682901,-1.4295828802745312,0,0,0,1
-2.174444274662659,-1.36801598423171,-3.1175306802745313,0,0,0,1
-4.365833274662659,-1.09582108423171,-1.8553864802745312,0,0,0,1
-4.365833274662659,-1.09582108423171,-1.8553864802745312,0,0,0,1
-2.7780327746626594,1.12994121576829,1.864038419725469,0,0,0,1
0.9304194653373409,1.51464791576829,2.2458336197254685,0,0,0,1
0.9304194653373409,1.51464791576829,2.2458336197254685,0,0,0,1
0.9304194653373409,1.51464791576829,2.2458336197254685,0,0,0,1
3.9959007253373406,-0.4265742142317099,-1.450642580274531,0,0,0,1
3.9959007253373406,-0.4265742142317099,-1.450642580274531,0,0,0,1
2.3519931253373407,-1.1737857842317099,-2.8043723802745313,0,0,0,1
2.3519931253373407,-1.1737857842317099,-2.8043723802745313,0,0,0,1
-3.902548274662659,-1.52471958423171,-1.810661780274531,0,0,0,1
-5.356195274662659,-1.0740361842317099,0.5231493197254689,0,0,0,1
-5.356195274662659,-1.0740361842317099,0.5231493197254689,0,0,0,1
-1.627371274662659,0.42249174576829013,4.275085619725469,0,0,0,1
1.021924525337341,0.7841830157682902,3.3448723197254684,0,0,0,1
3.2209821253373407,-0.29996858423170986,1.2438683197254687,0,0,0,1
3.2209821253373407,-0.29996858423170986,1.2438683197254687,0,0,0,1
3.2209821253373407,-0.29996858423170986,1.2438683197254687,0,0,0,1
4.058130725337341,-1.53980948423171,-2.7436523802745314,0,0,0,1
0.9552331253373408,-0.8843655842317099,-4.047644380274531,0,0,0,1
0.9552331253373408,-0.8843655842317099,-4.047644380274531,0,0,0,1
-3.3972806746626594,1.67956421576829,0.8505967497254688,0,0,0,1
-1.834688174662659,0.7447960157682901,1.8641455197254688,0,0,0,1
0.48874999533734087,-0.27471658423170986,1.9429086197254688,0,0,0,1
3.049043225337341,-1.20041408423171,0.6785012797254688,0,0,0,1
3.049043225337341,-1.20041408423171,0.6785012797254688,0,0,0,1
2.4570889253373407,-0.8423911142317099,-0.37108085027453125,0,0,0,1
0.9686713253373409,-0.28715555423170985,-1.3331028802745313,0,0,0,1
-1.314244774662659,0.11136214576829014,-1.7930538802745313,0,0,0,1
-3.045534574662659,0.38510398576829014,-2.0623934802745314,0,0,0,1
-3.045534574662659,0.38510398576829014,-2.0623934802745314,0,0,0,1
-2.486091074662659,0.2040869057682901,-1.3687896802745312,0,0,0,1
0.8453021253373408,-0.39605281423170985,0.2703780797254688,0,0,0,1
1.985324425337341,-0.7153859842317098,0.6707031197254688,0,0,0,1
2.552971425337341,-0.9579891342317098,1.0243289197254688,0,0,0,1
1.618246525337341,-0.6753385442317098,0.6030348197254688,0,0,0,1
-0.04407165866265911,-0.015354004231709873,0.4889676897254688,0,0,0,1
-0.04407165866265911,-0.015354004231709873,0.4889676897254688,0,0,0,1
-1.606617474662659,0.6552726157682901,-0.16720429027453124,0,0,0,1
-0.5859732746626591,0.1809234657682901,-1.1710276802745312,0,0,0,1
1.714885225337341,0.24250225576829013,-0.43543795027453125,0,0,0,1
1.714885225337341,0.24250225576829013,-0.43543795027453125,0,0,0,1
1.147990725337341,0.9058194157682902,0.013540951725468774,0,0,0,1
0.3208594453373409,0.9526683157682901,0.40893671972546874,0,0,0,1
-0.9287895746626591,-0.6670860442317098,0.23113563972546877,0,0,0,1
-0.9287895746626591,-0.6670860442317098,0.23113563972546877,0,0,0,1
1.307867525337341,-0.5909540442317098,-0.07023039627453123,0,0,0,1
1.626842025337341,0.13494000576829013,-0.27303842027453123,0,0,0,1
1.626842025337341,0.13494000576829013,-0.27303842027453123,0,0,0,1
1.626842025337341,0.13494000576829013,-0.27303842027453123,0,0,0,1
-1.263412974662659,0.02404217776829013,-0.32148472027453123,0,0,0,1
-1.263412974662659,0.02404217776829013,-0.32148472027453123,0,0,0,1
-0.48763321466265913,0.5789600757682901,-0.16382399027453123,0,0,0,1
0.9676633253373409,0.37259431576829016,-0.09031919027453122,0,0,0,1
0.7826094753373409,0.2237984457682901,-0.14812026027453123,0,0,0,1
0.0938964053373409,0.9537651757682901,-0.16383508027453123,0,0,0,1
0.0938964053373409,0.9537651757682901,-0.16383508027453123,0,0,0,1
-0.5022816546626591,-1.20649268423171,-0.6623902802745312,0,0,0,1
-0.3621792746626591,-1.24144778423171,-0.3638982502745312,0,0,0,1
1.295832125337341,0.6281888157682901,-0.04714647027453122,0,0,0,1
1.295832125337341,0.6281888157682901,-0.04714647027453122,0,0,0,1
0.46575882533734086,0.1500370357682901,-0.3147996402745312,0,0,0,1
-0.5884604246626591,-0.3709516842317099,-0.5130794402745312,0,0,0,1
-0.2049517446626591,0.7193798157682901,-0.21867845027453123,0,0,0,1
-0.2049517446626591,0.7193798157682901,-0.21867845027453123,0,0,0,1
1.162188025337341,0.2961312757682901,-0.08817866627453123,0,0,0,1
1.773423725337341,-0.14056093423170987,-0.23025498027453123,0,0,0,1
1.218955525337341,-0.35827783423170984,-0.23658183027453122,0,0,0,1
1.218955525337341,-0.35827783423170984,-0.23658183027453122,0,0,0,1
-1.929747574662659,1.13072041576829,0.06376423972546877,0,0,0,1
0.4552741253373409,0.5744017157682901,0.22038861972546878,0,0,0,1
0.4552741253373409,0.5744017157682901,0.22038861972546878,0,0,0,1
0.4552741253373409,0.5744017157682901,0.22038861972546878,0,0,0,1
1.331283125337341,-0.10970022923170987,-0.4626503802745312,0,0,0,1
-0.4268116746626591,0.4639548157682901,-0.19516608027453122,0,0,0,1
-2.0674800746626594,0.6624470557682901,-0.025712640274531226,0,0,0,1
-2.0674800746626594,0.6624470557682901,-0.025712640274531226,0,0,0,1
-1.742594274662659,-0.14392895423170987,0.4552092197254688,0,0,0,1
-1.742594274662659,-0.14392895423170987,0.4552092197254688,0,0,0,1
-0.2719006346626591,-0.12644387423170989,0.19695165972546877,0,0,0,1
-0.2719006346626591,-0.12644387423170989,0.19695165972546877,0,0,0,1
1.122602025337341,-0.7680008242317099,-0.20133218027453123,0,0,0,1
1.122602025337341,-0.7680008242317099,-0.20133218027453123,0,0,0,1
-0.18324325466265912,-0.4257222842317099,-0.29667416027453125,0,0,0,1
-0.18324325466265912,-0.4257222842317099,-0.29667416027453125,0,0,0,1
-0.8100313746626591,0.40751688576829015,-0.2935312102745312,0,0,0,1
0.0523686553373409,0.7341369157682901,0.3010970597254688,0,0,0,1
0.0523686553373409,0.7341369157682901,0.3010970597254688,0,0,0,1
0.0523686553373409,0.7341369157682901,0.3010970597254688,0,0,0,1
1.804461925337341,-0.28404061423170984,0.048529891725468774,0,0,0,1
1.532427325337341,-0.39970728423170987,-0.4850626302745312,0,0,0,1
0.10157443533734088,-0.11317871923170987,-0.4278484802745312,0,0,0,1
-1.683936574662659,0.33347401576829017,-0.35712716027453123,0,0,0,1
-2.421411974662659,0.6066836157682901,0.28814055972546876,0,0,0,1
-1.726758474662659,0.5207504857682902,0.48365437972546876,0,0,0,1
0.024928585337340894,0.41302191576829017,0.43930321972546876,0,0,0,1
1.608119525337341,0.12227019976829014,-0.07524380027453123,0,0,0,1
1.793295425337341,-0.8077821842317099,-0.22003630027453122,0,0,0,1
-0.17547367466265912,-0.6404887842317099,-0.12082890027453123,0,0,0,1
-0.17547367466265912,-0.6404887842317099,-0.12082890027453123,0,0,0,1
-0.17547367466265912,-0.6404887842317099,-0.12082890027453123,0,0,0,1
-1.935680874662659,0.5430763157682902,0.07121511972546878,0,0,0,1
-1.935680874662659,0.5430763157682902,0.07121511972546878,0,0,0,1
-1.935680874662659,0.5430763157682902,0.07121511972546878,0,0,0,1
-0.033660395662659104,0.6612239657682901,0.09263959372546877,0,0,0,1
1.220218225337341,-0.42554168423170985,-0.32375100027453124,0,0,0,1
1.226247325337341,-0.48185161423170986,-0.3641414402745312,0,0,0,1
1.226247325337341,-0.48185161423170986,-0.3641414402745312,0,0,0,1
1.226247325337341,-0.48185161423170986,-0.3641414402745312,0,0,0,1
-0.49049327466265913,1.0135092157682901,0.0015769887254687741,0,0,0,1
-0.49049327466265913,1.0135092157682901,0.0015769887254687741,0,0,0,1
-0.6935000246626591,0.6657002157682902,0.19521739972546878,0,0,0,1
-0.6935000246626591,0.6657002157682902,0.19521739972546878,0,0,0,1
0.5511450953373409,0.16301341576829012,0.04059555972546878,0,0,0,1
0.5511450953373409,0.16301341576829012,0.04059555972546878,0,0,0,1
0.5085253853373409,0.34071745576829016,0.23987718972546876,0,0,0,1
-0.3701214746626591,0.39087964576829015,0.3590986397254688,0,0,0,1
-1.354793074662659,0.44529105576829014,0.22943415972546877,0,0,0,1
-0.9559778746626592,-0.08591779023170987,-0.0031921582745312255,0,0,0,1
-0.9559778746626592,-0.08591779023170987,-0.0031921582745312255,0,0,0,1
0.8202910553373409,-0.5159935142317098,-0.14167705027453123,0,0,0,1
1.727239125337341,0.09507853176829013,-0.0033288912745312255,0,0,0,1
1.179585925337341,0.38152961576829014,0.03242739972546878,0,0,0,1
1.179585925337341,0.38152961576829014,0.03242739972546878,0,0,0,1
-0.500591734662659,-0.6284736842317099,-0.40586576027453125,0,0,0,1
-0.500591734662659,-0.6284736842317099,-0.40586576027453125,0,0,0,1
