acc_x,acc_y,acc_z,gyro_x,gyro_y,gyro_z,label
-0.7393049746626591,0.07448202576829013,-0.14996031027453122,0,0,0,1
-0.7393049746626591,0.07448202576829013,-0.14996031027453122,0,0,0,1
0.24250747533734088,0.10296943576829012,0.5589471697254689,0,0,0,1
0.6089568253373409,-0.5601249842317099,0.2879300997254688,0,0,0,1
-0.04269359866265911,-0.20211738423170988,-0.20653680027453122,0,0,0,1
-1.092655674662659,0.8290778557682902,-0.6775456802745312,0,0,0,1
-1.092655674662659,0.8290778557682902,-0.6775456802745312,0,0,0,1
-0.6885838346626592,1.37494551576829,-1.4454181802745312,0,0,0,1
-0.2171625946626591,1.02810301576829,-1.5311616802745311,0,0,0,1
0.027559773337340894,0.38630996576829013,-1.2654181802745312,0,0,0,1
0.027559773337340894,0.38630996576829013,-1.2654181802745312,0,0,0,1
-0.3552460546626591,-0.14994165423170988,0.10233100972546877,0,0,0,1
-1.397187674662659,0.5706675857682901,0.6405979197254689,0,0,0,1
-0.9562153746626592,0.31301211576829013,0.43081768972546874,0,0,0,1
-0.1315178746626591,-0.4335402642317099,-0.6501987302745311,0,0,0,1
-0.1315178746626591,-0.4335402642317099,-0.6501987302745311,0,0,0,1
0.10133029533734089,-0.8362663842317098,-1.1183557802745312,0,0,0,1
-0.1383375946626591,-0.8907781842317098,-0.7600913402745312,0,0,0,1
-0.42760990466265913,-0.8687485242317099,-0.16759017027453124,0,0,0,1
-0.42760990466265913,-0.8687485242317099,-0.16759017027453124,0,0,0,1
0.3749451753373409,-1.19343668423171,0.42367716972546876,0,0,0,1
0.5133366753373408,-1.44917128423171,0.5188636197254688,0,0,0,1
0.3335356853373409,-1.59149048423171,0.3067032997254688,0,0,0,1
-1.369492074662659,-0.21869720423170988,0.03954228572546878,0,0,0,1
-1.369492074662659,-0.21869720423170988,0.03954228572546878,0,0,0,1
-1.992066874662659,0.5077742557682902,-0.23538188027453122,0,0,0,1
-1.055503374662659,0.27722536576829016,-0.44844011027453123,0,0,0,1
2.0613942253373407,-0.8620720842317099,-0.5919119402745312,0,0,0,1
2.0613942253373407,-0.8620720842317099,-0.5919119402745312,0,0,0,1
1.172019525337341,-0.6597755842317099,0.36749871972546877,0,0,0,1
0.2808661653373409,0.012999031768290129,0.9013951697254688,0,0,0,1
-0.6749644146626591,1.26120221576829,0.7766910197254688,0,0,0,1
-0.6749644146626591,1.26120221576829,0.7766910197254688,0,0,0,1
0.6904359253373409,0.24880691576829012,-0.8418898802745312,0,0,0,1
0.9935345853373408,1.21386731576829,0.10403891972546878,0,0,0,1
0.9935345853373408,1.21386731576829,0.10403891972546878,0,0,0,1
1.818374125337341,1.73760181576829,0.5699689197254688,0,0,0,1
1.818374125337341,1.73760181576829,0.5699689197254688,0,0,0,1
0.11314727533734088,0.44833119576829017,-0.09132054627453123,0,0,0,1
0.11314727533734088,0.44833119576829017,-0.09132054627453123,0,0,0,1
-1.456022674662659,-0.37418238423170985,-0.7615016802745311,0,0,0,1
0.3679757253373409,0.8510141157682901,-0.48565582027453125,0,0,0,1
1.826450825337341,0.42889328576829017,-0.43425825027453124,0,0,0,1
1.826450825337341,0.42889328576829017,-0.43425825027453124,0,0,0,1
1.049672625337341,0.03359888076829013,-0.34062615027453125,0,0,0,1
-1.515069474662659,1.25582041576829,0.34849544972546875,0,0,0,1
-0.3754725246626591,1.69501481576829,0.5568330197254688,0,0,0,1
-0.3754725246626591,1.69501481576829,0.5568330197254688,0,0,0,1
0.3546137953373409,0.7795977757682901,0.06732221972546877,0,0,0,1
0.5140242753373409,-0.2950376042317099,-0.2983401102745312,0,0,0,1
0.1925330253373409,-0.7975547842317099,-0.3636170802745312,0,0,0,1
-0.3751444746626591,-0.47889868423170984,-0.27169588027453123,0,0,0,1
-0.3355898746626591,0.29463041576829013,0.13772495972546878,0,0,0,1
0.4180503053373409,-0.31956558423170983,0.12605151972546877,0,0,0,1
-0.5163578746626591,-1.30727418423171,-0.19757715027453124,0,0,0,1
-1.395461574662659,-0.9451162842317099,-0.17796710027453122,0,0,0,1
-1.149887574662659,-0.1260588142317099,0.06832000472546877,0,0,0,1
-1.149887574662659,-0.1260588142317099,0.06832000472546877,0,0,0,1
-0.25073860466265907,-0.11572462023170987,-0.25777546027453124,0,0,0,1
1.284907825337341,-0.5384487342317098,-0.7696418802745312,0,0,0,1
2.404830425337341,-1.08428738423171,-0.9763329302745312,0,0,0,1
1.558593325337341,-1.35572358423171,-1.3284177802745312,0,0,0,1
-3.094468074662659,-0.9052455242317099,0.6895341597254688,0,0,0,1
-3.094468074662659,-0.9052455242317099,0.6895341597254688,0,0,0,1
-3.094468074662659,-0.9052455242317099,0.6895341597254688,0,0,0,1
-2.477136574662659,-1.5461780842317099,0.9804097197254689,0,0,0,1
0.3136944953373409,-1.97535318423171,1.028814019725469,0,0,0,1
0.3136944953373409,-1.97535318423171,1.028814019725469,0,0,0,1
2.8316922253373407,0.07279904576829013,-0.16562918027453122,0,0,0,1
2.8316922253373407,0.07279904576829013,-0.16562918027453122,0,0,0,1
2.8316922253373407,0.07279904576829013,-0.16562918027453122,0,0,0,1
1.523495225337341,1.56643921576829,-1.819016980274531,0,0,0,1
0.2387843253373409,1.05739641576829,-1.9922968802745311,0,0,0,1
-1.981977874662659,1.1530268157682901,-1.438824780274531,0,0,0,1
-2.4973458746626593,2.0521619157682904,0.6706288697254689,0,0,0,1
1.701981125337341,0.39601646576829014,0.9128104197254688,0,0,0,1
1.701981125337341,0.39601646576829014,0.9128104197254688,0,0,0,1
1.701981125337341,0.39601646576829014,0.9128104197254688,0,0,0,1
1.701981125337341,0.39601646576829014,0.9128104197254688,0,0,0,1
1.098796425337341,-1.64541418423171,-0.9085469802745312,0,0,0,1
-0.5486874446626591,-1.01541348423171,-0.8102146802745311,0,0,0,1
-0.5486874446626591,-1.01541348423171,-0.8102146802745311,0,0,0,1
-3.139095274662659,1.08263641576829,0.7534988797254688,0,0,0,1
-2.806646274662659,1.02516221576829,1.5343471197254688,0,0,0,1
-0.5648999046626592,0.2449748657682901,1.4768576197254688,0,0,0,1
2.4054761253373407,-0.5588650542317098,0.8248321697254688,0,0,0,1
4.381064725337341,-0.7147382342317099,0.7580376597254688,0,0,0,1
4.381064725337341,-0.7147382342317099,0.7580376597254688,0,0,0,1
4.045059725337341,0.9013992157682902,0.21973224972546876,0,0,0,1
1.975215425337341,1.9353964157682901,-0.24910882027453124,0,0,0,1
-0.6952395246626591,2.1839032157682903,0.4945188197254688,0,0,0,1
-3.1363544746626593,2.0645006157682904,-0.37563088027453123,0,0,0,1
-3.1363544746626593,2.0645006157682904,-0.37563088027453123,0,0,0,1
-0.6359362446626591,-0.9477626842317098,0.13570018972546877,0,0,0,1
-0.6359362446626591,-0.9477626842317098,0.13570018972546877,0,0,0,1
4.210028225337341,0.5406827557682902,1.5621581197254688,0,0,0,1
4.210028225337341,0.5406827557682902,1.5621581197254688,0,0,0,1
4.086681725337341,0.9860631157682902,1.4369616197254689,0,0,0,1
2.3501973253373407,1.1940676157682901,0.6173029797254689,0,0,0,1
-0.6209444746626591,1.15892391576829,0.8373036197254689,0,0,0,1
-3.7610325746626594,2.2480266157682904,0.07376953972546876,0,0,0,1
-1.462006074662659,1.86683921576829,-0.10372058027453122,0,0,0,1
3.1074357253373406,-0.3377052642317099,-0.6690175802745312,0,0,0,1
3.718541725337341,-1.14813098423171,-0.5712181802745312,0,0,0,1
3.0757461253373406,-1.6259508842317099,-0.15602878027453124,0,0,0,1
1.003706425337341,-1.39169778423171,0.46164021972546876,0,0,0,1
-1.804452374662659,-0.32304464423170987,1.3332856197254688,0,0,0,1
-2.4849209746626593,1.64316071576829,1.5448088197254688,0,0,0,1
-2.4849209746626593,1.64316071576829,1.5448088197254688,0,0,0,1
0.004456059337340894,0.6597459457682902,0.9472112197254688,0,0,0,1
0.004456059337340894,0.6597459457682902,0.9472112197254688,0,0,0,1
2.293904725337341,-0.9201544842317099,-0.9601667202745312,0,0,0,1
2.293904725337341,-0.9201544842317099,-0.9601667202745312,0,0,0,1
1.355713425337341,0.1741576157682901,-0.9356583802745312,0,0,0,1
-3.4727005746626594,1.45982871576829,0.7499859197254688,0,0,0,1
-3.4727005746626594,1.45982871576829,0.7499859197254688,0,0,0,1
-3.259553874662659,-0.08366468423170988,1.3479086197254688,0,0,0,1
0.3502192653373409,-2.0748128842317097,0.6631144197254688,0,0,0,1
2.275302425337341,-2.0596310842317096,-0.18472078027453123,0,0,0,1
2.275302425337341,-2.0596310842317096,-0.18472078027453123,0,0,0,1
3.5889983253373408,-1.96362238423171,-0.3178916302745312,0,0,0,1
-0.9919466746626591,-0.37499634423170985,-0.19854346027453124,0,0,0,1
-0.9919466746626591,-0.37499634423170985,-0.19854346027453124,0,0,0,1
-3.764504374662659,0.36561301576829014,-0.21220496027453123,0,0,0,1
0.7826705253373409,-0.07438978423170987,0.5584287197254688,0,0,0,1
0.7826705253373409,-0.07438978423170987,0.5584287197254688,0,0,0,1
2.696547025337341,0.40688918576829014,-0.9047587202745312,0,0,0,1
-1.322447274662659,0.07092425576829013,-1.1000212802745313,0,0,0,1
-1.322447274662659,0.07092425576829013,-1.1000212802745313,0,0,0,1
-2.9568528746626592,0.4019642957682901,0.5143815197254689,0,0,0,1
1.115796625337341,0.9059120557682901,1.0925993197254689,0,0,0,1
1.115796625337341,0.9059120557682901,1.0925993197254689,0,0,0,1
2.805173425337341,-0.04500476623170987,0.5091092197254689,0,0,0,1
1.611933225337341,0.10234918076829012,-0.024208100274531227,0,0,0,1
-2.338968274662659,1.76929261576829,-0.6908184802745312,0,0,0,1
-2.338968274662659,1.76929261576829,-0.6908184802745312,0,0,0,1
-2.1542592746626594,1.43400811576829,-0.5902098802745311,0,0,0,1
0.7310900853373409,0.5118142557682901,0.13904186972546878,0,0,0,1
1.924248225337341,-0.1672169842317099,0.25120291972546877,0,0,0,1
1.924248225337341,-0.1672169842317099,0.25120291972546877,0,0,0,1
2.189793125337341,-0.6531711842317098,0.5942109497254688,0,0,0,1
2.189793125337341,-0.6531711842317098,0.5942109497254688,0,0,0,1
-0.4885811746626591,0.3469692657682901,1.0187556197254688,0,0,0,1
-1.919054974662659,0.8555624157682902,0.6747445697254688,0,0,0,1
-1.919054974662659,0.8555624157682902,0.6747445697254688,0,0,0,1
1.386415025337341,-0.19719563423170988,-0.41436198027453125,0,0,0,1
1.386415025337341,-0.19719563423170988,-0.41436198027453125,0,0,0,1
0.8173499253373409,0.19825681576829013,0.021205870725468774,0,0,0,1
0.8173499253373409,0.19825681576829013,0.021205870725468774,0,0,0,1
-1.406732074662659,0.6458962757682901,0.8618237197254688,0,0,0,1
-1.183016274662659,0.43751718576829013,1.2071990197254687,0,0,0,1
-1.183016274662659,0.43751718576829013,1.2071990197254687,0,0,0,1
1.472821725337341,-0.3750298442317099,1.0256452197254688,0,0,0,1
1.249252825337341,-0.44555478423170986,0.36872801972546876,0,0,0,1
-0.12155197466265912,-1.01990108423171,0.24513908972546877,0,0,0,1
-0.12155197466265912,-1.01990108423171,0.24513908972546877,0,0,0,1
-1.500084374662659,-0.05380065423170987,0.39096733972546877,0,0,0,1
-0.1922192446626591,1.36270001576829,0.6938665797254688,0,0,0,1
1.630379225337341,-0.2617831842317099,-0.05783143827453122,0,0,0,1
1.310057225337341,-1.04370488423171,-0.07612053027453122,0,0,0,1
0.5166831253373408,-0.7541129442317098,0.10788914372546878,0,0,0,1
-0.7179188746626591,0.44231565576829013,0.5389963197254688,0,0,0,1
-0.7179188746626591,0.44231565576829013,0.5389963197254688,0,0,0,1
-1.491904674662659,1.18828081576829,0.5617682197254689,0,0,0,1
-0.9029831746626591,0.6293182557682901,0.6268675197254688,0,0,0,1
0.8132395953373409,-1.10529258423171,0.12997122972546876,0,0,0,1
0.8488698253373409,-0.6691009842317098,0.06409677972546877,0,0,0,1
0.8488698253373409,-0.6691009842317098,0.06409677972546877,0,0,0,1
0.43303634533734087,1.09213491576829,0.5401788197254688,0,0,0,1
-0.20762585466265912,1.4709274157682901,0.43747069972546876,0,0,0,1
-0.20762585466265912,1.4709274157682901,0.43747069972546876,0,0,0,1
-0.20762585466265912,1.4709274157682901,0.43747069972546876,0,0,0,1
-0.06819294466265911,-1.03584288423171,-0.33448854027453123,0,0,0,1
-0.06819294466265911,-1.03584288423171,-0.33448854027453123,0,0,0,1
-0.06819294466265911,-1.03584288423171,-0.33448854027453123,0,0,0,1
-0.06947468466265912,-0.40539818423170987,-0.27643624027453123,0,0,0,1
0.2831425853373409,0.9439791157682902,0.3618382497254688,0,0,0,1
0.2831425853373409,0.9439791157682902,0.3618382497254688,0,0,0,1
0.013578907337340896,-0.7029711442317098,-0.004099996474531225,0,0,0,1
0.013578907337340896,-0.7029711442317098,-0.004099996474531225,0,0,0,1
-0.1386284646626591,-0.6767383842317098,-0.05575004327453122,0,0,0,1
-0.1386284646626591,-0.6767383842317098,-0.05575004327453122,0,0,0,1
0.018044965337340894,0.7141928857682901,0.28104921972546876,0,0,0,1
0.3201623253373409,0.7939699157682901,0.48041381972546876,0,0,0,1
0.3201623253373409,0.7939699157682901,0.48041381972546876,0,0,0,1
0.25594092533734086,0.09010425576829013,0.22703047972546878,0,0,0,1
0.4672732553373409,-0.2538946342317099,-0.062060506274531226,0,0,0,1
0.2947850253373409,0.37322958576829013,-0.29863706027453124,0,0,0,1
0.2947850253373409,0.37322958576829013,-0.29863706027453124,0,0,0,1
-0.4453739946626591,0.7772093157682901,-0.40594128027453125,0,0,0,1
-0.4453739946626591,0.7772093157682901,-0.40594128027453125,0,0,0,1
0.46464206533734087,-0.5291685242317099,-0.20479193027453124,0,0,0,1
0.46464206533734087,-0.5291685242317099,-0.20479193027453124,0,0,0,1
0.7080197253373409,-0.1766298842317099,0.09725960972546877,0,0,0,1
-0.8958086746626591,0.8318767157682901,0.5688777197254689,0,0,0,1
-0.8958086746626591,0.8318767157682901,0.5688777197254689,0,0,0,1
-0.6193318246626591,-0.38405935423170984,-0.034345420274531226,0,0,0,1
-0.6193318246626591,-0.38405935423170984,-0.034345420274531226,0,0,0,1
-0.4278874246626591,0.1910466457682901,-0.26014450027453123,0,0,0,1
0.7410264253373409,0.49779485576829013,-0.2512830802745312,0,0,0,1
0.5944543253373409,0.14121733576829013,-0.4819851202745312,0,0,0,1
0.5944543253373409,0.14121733576829013,-0.4819851202745312,0,0,0,1
-0.051899416662659105,0.2054241357682901,0.33831825972546875,0,0,0,1
-0.17648838466265912,0.5224857557682901,0.6548293197254689,0,0,0,1
-0.7042784746626591,0.9003030157682902,0.5140769197254689,0,0,0,1
-0.11751793466265911,0.6510259157682902,0.15771731972546876,0,0,0,1
0.5409445953373408,-0.5703948842317098,-0.3016326802745312,0,0,0,1
0.5409445953373408,-0.5703948842317098,-0.3016326802745312,0,0,0,1
-0.5815825346626591,-0.30295692423170983,-0.36632005027453124,0,0,0,1
-0.5815825346626591,-0.30295692423170983,-0.36632005027453124,0,0,0,1
0.5612960253373409,1.02635771576829,0.23756131972546876,0,0,0,1
0.5612960253373409,1.02635771576829,0.23756131972546876,0,0,0,1
0.5612960253373409,1.02635771576829,0.23756131972546876,0,0,0,1
0.5383200853373409,0.8639282157682902,0.15419038972546878,0,0,0,1
0.032060162337340894,-0.5365569842317098,0.26720883972546877,0,0,0,1
0.9861092753373409,0.27467404576829013,0.39375791972546875,0,0,0,1
0.5607505253373409,0.40600621576829016,0.02987894272546877,0,0,0,1
0.4816136553373409,-0.38673306423170983,-0.3071943802745312,0,0,0,1
0.4816136553373409,-0.38673306423170983,-0.3071943802745312,0,0,0,1
0.0010771913373408947,0.13015219576829012,-0.23841313027453123,0,0,0,1
-0.026762469662659105,0.36628045576829016,0.04197558572546878,0,0,0,1
0.12231780533734088,0.20346729576829012,0.2893586997254688,0,0,0,1
0.42796662533734087,-0.8230133442317099,0.47223397972546877,0,0,0,1
0.7465834753373409,-0.31485004423170987,0.38678331972546875,0,0,0,1
0.7465834753373409,-0.31485004423170987,0.38678331972546875,0,0,0,1
0.3773341253373409,0.38046755576829017,0.17640569972546877,0,0,0,1
0.2525134253373409,0.41729797576829014,-0.20383456027453123,0,0,0,1
0.2474169853373409,-0.21199376423170987,-0.33444718027453124,0,0,0,1
-0.5411410146626591,-0.46036793423170985,-0.3000567302745312,0,0,0,1
0.6788764253373409,-0.1294503442317099,0.14738359972546877,0,0,0,1
0.3504367053373409,-0.5994556342317099,0.22718723972546878,0,0,0,1
0.3504367053373409,-0.5994556342317099,0.22718723972546878,0,0,0,1
-0.06617306066265911,-0.6745959342317098,0.4362554797254688,0,0,0,1
-0.2968468546626591,-0.25577418423170983,0.47011979972546875,0,0,0,1
0.9302611253373408,0.38469083576829016,-0.07592300027453124,0,0,0,1
1.178781025337341,0.005736846168290129,-0.5824078802745312,0,0,0,1
-0.6341357046626591,-0.33847246423170985,-0.45034495027453125,0,0,0,1
-0.6341357046626591,-0.33847246423170985,-0.45034495027453125,0,0,0,1
0.19777633533734088,0.5564208157682902,0.21862980972546878,0,0,0,1
1.604122625337341,0.13678972576829013,0.29431309972546876,0,0,0,1
1.604122625337341,0.13678972576829013,0.29431309972546876,0,0,0,1
1.773494225337341,-0.2482186342317099,0.04744621972546878,0,0,0,1
-0.4785761746626591,-0.4678992142317099,-0.34677306027453125,0,0,0,1
-0.5152325746626591,-0.38396186423170986,-0.32583824027453123,0,0,0,1
-0.3921961746626591,0.0024636720182901286,-0.26455823027453124,0,0,0,1
-0.34138534466265913,0.10039212576829012,-0.4213673202745312,0,0,0,1
0.8322329653373409,-0.23905638423170988,-0.07369593027453122,0,0,0,1
0.6793141253373409,-0.17728894423170988,0.004701225725468774,0,0,0,1
0.6793141253373409,-0.17728894423170988,0.004701225725468774,0,0,0,1
0.6793141253373409,-0.17728894423170988,0.004701225725468774,0,0,0,1
0.012268559337340897,0.17304133576829012,0.052302449725468776,0,0,0,1
0.3815665453373409,0.057685645768290134,-0.34968332027453125,0,0,0,1
0.3318505453373409,-0.31672753423170985,-0.49183956027453124,0,0,0,1
0.3318505453373409,-0.31672753423170985,-0.49183956027453124,0,0,0,1
0.3318505453373409,-0.31672753423170985,-0.49183956027453124,0,0,0,1
0.0356640973373409,1.25241031576829,-0.16859487027453124,0,0,0,1
0.5996108253373409,0.8414697157682901,-0.3524715002745312,0,0,0,1
0.5996108253373409,0.8414697157682901,-0.3524715002745312,0,0,0,1
0.5996108253373409,0.8414697157682901,-0.3524715002745312,0,0,0,1
-0.3278927746626591,-0.9070722842317098,-0.5459541402745312,0,0,0,1
-0.3278927746626591,-0.9070722842317098,-0.5459541402745312,0,0,0,1
-0.11910293866265911,-0.2116804542317099,-0.09493163027453123,0,0,0,1
-0.2619576246626591,1.00536531576829,0.06436916972546877,0,0,0,1
-0.2608980946626591,0.9974827157682902,0.07240637972546878,0,0,0,1
-0.2608980946626591,0.9974827157682902,0.07240637972546878,0,0,0,1
1.084070725337341,-0.6452390842317098,-0.5669237802745312,0,0,0,1
1.084867025337341,-0.6463730842317098,-0.5605226802745312,0,0,0,1
-0.7233595746626591,0.7726325157682902,-0.4775071502745312,0,0,0,1
-0.7233595746626591,0.7726325157682902,-0.4775071502745312,0,0,0,1
-1.086677974662659,0.37901367576829015,-0.4517331402745312,0,0,0,1
0.38656379533734087,-0.31170998423170987,-0.21658710027453124,0,0,0,1
0.38656379533734087,-0.31170998423170987,-0.21658710027453124,0,0,0,1
1.635413625337341,0.04689698276829013,0.07400866972546877,0,0,0,1
