acc_x,acc_y,acc_z,gyro_x,gyro_y,gyro_z,label
0.4608903053373409,1.05634931576829,0.22560259972546878,0,0,0,1
0.4608903053373409,1.05634931576829,0.22560259972546878,0,0,0,1
0.4608903053373409,1.05634931576829,0.22560259972546878,0,0,0,1
0.4608903053373409,1.05634931576829,0.22560259972546878,0,0,0,1
0.4608903053373409,1.05634931576829,0.22560259972546878,0,0,0,1
0.4608903053373409,1.05634931576829,0.22560259972546878,0,0,0,1
0.4608903053373409,1.05634931576829,0.22560259972546878,0,0,0,1
0.4608903053373409,1.05634931576829,0.22560259972546878,0,0,0,1
0.4608903053373409,1.05634931576829,0.22560259972546878,0,0,0,1
0.4608903053373409,1.05634931576829,0.22560259972546878,0,0,0,1
0.4608903053373409,1.05634931576829,0.22560259972546878,0,0,0,1
0.4608903053373409,1.05634931576829,0.22560259972546878,0,0,0,1
0.4608903053373409,1.05634931576829,0.22560259972546878,0,0,0,1
0.4608903053373409,1.05634931576829,0.22560259972546878,0,0,0,1
0.4608903053373409,1.05634931576829,0.22560259972546878,0,0,0,1
0.4608903053373409,1.05634931576829,0.22560259972546878,0,0,0,1
0.4608903053373409,1.05634931576829,0.22560259972546878,0,0,0,1
0.4608903053373409,1.05634931576829,0.22560259972546878,0,0,0,1
0.4608903053373409,1.05634931576829,0.22560259972546878,0,0,0,1
0.4608903053373409,1.05634931576829,0.22560259972546878,0,0,0,1
0.4608903053373409,1.05634931576829,0.22560259972546878,0,0,0,1
0.4608903053373409,1.05634931576829,0.22560259972546878,0,0,0,1
0.4608903053373409,1.05634931576829,0.22560259972546878,0,0,0,1
0.4608903053373409,1.05634931576829,0.22560259972546878,0,0,0,1
0.4608903053373409,1.05634931576829,0.22560259972546878,0,0,0,1
0.4608903053373409,1.05634931576829,0.22560259972546878,0,0,0,1
1.559027225337341,-0.32330791423170985,-0.28845408027453123,0,0,0,1
1.439511825337341,-0.35688112423170987,0.38793834972546876,0,0,0,1
1.161075125337341,-0.7033368142317099,-1.014777880274531,0,0,0,1
1.556788925337341,-1.21672568423171,0.06462290972546877,0,0,0,1
1.556788925337341,-1.21672568423171,0.06462290972546877,0,0,0,1
1.556788925337341,-1.21672568423171,0.06462290972546877,0,0,0,1
1.935303225337341,-0.5028925842317099,1.027473019725469,0,0,0,1
1.935303225337341,-0.5028925842317099,1.027473019725469,0,0,0,1
1.935303225337341,-0.5028925842317099,1.027473019725469,0,0,0,1
1.935303225337341,-0.5028925842317099,1.027473019725469,0,0,0,1
1.437877225337341,-0.27837542423170986,-0.26573308027453124,0,0,0,1
1.437877225337341,-0.27837542423170986,-0.26573308027453124,0,0,0,1
1.255892325337341,-0.5529375842317099,-0.5746242102745311,0,0,0,1
-0.4108395446626591,0.46466674576829015,-0.20136378027453122,0,0,0,1
-1.309415274662659,0.5456087157682902,0.07714628972546878,0,0,0,1
-1.309415274662659,0.5456087157682902,0.07714628972546878,0,0,0,1
1.251419525337341,-0.7383611842317098,0.20769687972546877,0,0,0,1
0.4935555653373409,-0.8568030842317098,-0.18907419027453123,0,0,0,1
-0.09576175966265911,-0.5995754842317098,0.14269103972546876,0,0,0,1
-0.7165236346626591,0.4535108957682901,0.20800029972546877,0,0,0,1
-0.5260014346626591,0.43728398576829014,-0.30992058027453123,0,0,0,1
-0.5260014346626591,0.43728398576829014,-0.30992058027453123,0,0,0,1
-0.03723572066265911,0.5703893157682901,-0.40237156027453125,0,0,0,1
-0.03723572066265911,0.5703893157682901,-0.40237156027453125,0,0,0,1
0.07123805533734089,0.49150686576829017,0.023037044725468775,0,0,0,1
0.07123805533734089,0.49150686576829017,0.023037044725468775,0,0,0,1
0.07123805533734089,0.49150686576829017,0.023037044725468775,0,0,0,1
0.1304822153373409,-0.6892881242317098,-0.13783148027453124,0,0,0,1
0.1304822153373409,-0.6892881242317098,-0.13783148027453124,0,0,0,1
0.07123805533734089,0.49150686576829017,0.023037044725468775,0,0,0,1
0.2587237553373409,-0.45310924423170984,0.15886830972546878,0,0,0,1
-0.5704312146626591,0.33646853576829017,0.2718867597254688,0,0,0,1
-0.5370220746626592,0.14945955576829012,0.13136070972546876,0,0,0,1
0.8500771653373409,-0.8047747442317098,-0.16311094027453124,0,0,0,1
0.6707864253373409,-0.6034926842317099,-0.21730426027453123,0,0,0,1
0.6707864253373409,-0.6034926842317099,-0.21730426027453123,0,0,0,1
-0.9626135746626591,0.5722846157682902,0.22448965972546878,0,0,0,1
-0.9626135746626591,0.5722846157682902,0.22448965972546878,0,0,0,1
0.6400447253373409,-0.27836548423170987,-0.04352179327453122,0,0,0,1
2.0081077253373407,-0.6832489842317099,-0.24322435027453124,0,0,0,1
1.377049025337341,0.14299820576829012,-0.24979141027453122,0,0,0,1
1.377049025337341,0.14299820576829012,-0.24979141027453122,0,0,0,1
-1.601748974662659,0.35294415576829014,-0.09322551027453123,0,0,0,1
-1.296329974662659,-0.23997936423170987,-0.14629075027453123,0,0,0,1
-1.296329974662659,-0.23997936423170987,-0.14629075027453123,0,0,0,1
0.11364604533734089,-0.6482056242317099,-0.13959971027453122,0,0,0,1
1.669123225337341,-0.22351102423170988,-0.32951024027453124,0,0,0,1
1.669123225337341,-0.22351102423170988,-0.32951024027453124,0,0,0,1
1.114732325337341,0.6857756557682901,0.20313935972546876,0,0,0,1
1.114732325337341,0.6857756557682901,0.20313935972546876,0,0,0,1
-1.152413874662659,-1.3158030842317099,-0.6176030402745312,0,0,0,1
-1.660783274662659,-0.35470722423170986,0.21653428972546876,0,0,0,1
1.558078325337341,-1.05478478423171,-0.16333249027453123,0,0,0,1
1.558078325337341,-1.05478478423171,-0.16333249027453123,0,0,0,1
0.5520348753373409,-1.63994028423171,-0.2537393302745312,0,0,0,1
0.5520348753373409,-1.63994028423171,-0.2537393302745312,0,0,0,1
0.5520348753373409,-1.63994028423171,-0.2537393302745312,0,0,0,1
0.5520348753373409,-1.63994028423171,-0.2537393302745312,0,0,0,1
0.5520348753373409,-1.63994028423171,-0.2537393302745312,0,0,0,1
-0.3439202146626591,1.88174891576829,0.34834221972546875,0,0,0,1
-0.3439202146626591,1.88174891576829,0.34834221972546875,0,0,0,1
-0.0569701046626591,-1.4295012842317099,0.14377709972546876,0,0,0,1
0.4577279253373409,0.8757201657682901,1.138387919725469,0,0,0,1
1.055784725337341,-0.1457681442317099,-0.6199352802745312,0,0,0,1
1.055784725337341,-0.1457681442317099,-0.6199352802745312,0,0,0,1
-1.561888174662659,-1.81544778423171,-1.585110180274531,0,0,0,1
0.5379491253373408,1.07494131576829,-0.40499190027453125,0,0,0,1
1.553643725337341,2.02707341576829,-0.038592012274531226,0,0,0,1
1.553643725337341,2.02707341576829,-0.038592012274531226,0,0,0,1
1.740404625337341,1.30679561576829,-0.15201262027453122,0,0,0,1
-0.2844004446626591,-2.1286690842317095,0.17493619972546878,0,0,0,1
-0.2844004446626591,-2.1286690842317095,0.17493619972546878,0,0,0,1
-1.276635674662659,0.27712117576829015,1.1010334197254688,0,0,0,1
-1.276635674662659,0.27712117576829015,1.1010334197254688,0,0,0,1
-1.276635674662659,0.27712117576829015,1.1010334197254688,0,0,0,1
0.6518817253373409,1.18009151576829,0.9502963197254688,0,0,0,1
1.418891425337341,0.9424736657682902,-0.009799034974531225,0,0,0,1
-1.113754774662659,-0.40443078423170986,-1.0652023802745312,0,0,0,1
-1.113754774662659,-0.40443078423170986,-1.0652023802745312,0,0,0,1
-1.100518674662659,-0.46896315423170987,-0.9550690802745312,0,0,0,1
0.1367612053373409,-0.07377786423170987,-0.3953490602745312,0,0,0,1
1.726237825337341,0.26759871576829014,0.5111064597254689,0,0,0,1
0.6697221253373409,-0.34092245423170986,0.6451694697254688,0,0,0,1
-0.5941386046626591,-0.9698192842317098,0.6319855697254688,0,0,0,1
-0.5801272246626591,-0.2039251742317099,0.4316401197254688,0,0,0,1
0.24640037533734088,0.7985717157682901,0.06868999972546877,0,0,0,1
0.24640037533734088,0.7985717157682901,0.06868999972546877,0,0,0,1
1.147196325337341,-0.015312236231709872,-0.4951590602745312,0,0,0,1
1.729585225337341,-1.26764888423171,-1.1007243802745312,0,0,0,1
1.729585225337341,-1.26764888423171,-1.1007243802745312,0,0,0,1
0.9576382753373409,-1.3598896842317099,-0.7049761802745311,0,0,0,1
-1.114063674662659,0.45186253576829016,-0.3182945002745312,0,0,0,1
-2.1290202746626594,2.2499638157682904,0.6442383197254689,0,0,0,1
0.8217177553373409,0.8788271157682901,0.44054707972546875,0,0,0,1
1.244939325337341,-1.21500898423171,-1.111350880274531,0,0,0,1
1.244939325337341,-1.21500898423171,-1.111350880274531,0,0,0,1
1.244939325337341,-1.21500898423171,-1.111350880274531,0,0,0,1
0.8943438653373409,-1.54105378423171,-0.9006554202745312,0,0,0,1
-1.628364974662659,0.2304695757682901,0.2423695897254688,0,0,0,1
-0.9576144046626591,0.9854790157682901,0.3309877797254688,0,0,0,1
0.9514146253373409,0.5298582157682902,0.39402261972546876,0,0,0,1
1.104314325337341,-1.72851088423171,-0.48725984027453123,0,0,0,1
1.104314325337341,-1.72851088423171,-0.48725984027453123,0,0,0,1
1.663269525337341,0.21557130576829012,0.44409334972546877,0,0,0,1
0.6234050253373409,1.99439511576829,0.4408597897254688,0,0,0,1
-0.6400666046626591,2.24927851576829,-0.003969581474531225,0,0,0,1
-0.7383227146626591,0.3835143657682901,-0.028802426274531227,0,0,0,1
-0.7383227146626591,0.3835143657682901,-0.028802426274531227,0,0,0,1
-0.5566859046626591,-0.9978645842317099,-0.07686827027453123,0,0,0,1
-0.5566859046626591,-0.9978645842317099,-0.07686827027453123,0,0,0,1
0.38522578533734086,-0.6135270842317099,0.023920921725468777,0,0,0,1
2.4940772253373407,-0.027651768231709874,0.6681528197254688,0,0,0,1
2.496174325337341,0.5484132157682902,0.5039607197254689,0,0,0,1
0.8334078953373409,0.9026121657682902,-0.08436587627453122,0,0,0,1
-0.6132149746626591,-0.5130434442317099,-0.3334271002745312,0,0,0,1
-1.563806074662659,-0.4186273642317099,-0.6424147802745311,0,0,0,1
-0.8409361746626591,-0.07519386423170987,-0.8679700802745312,0,0,0,1
1.581145725337341,-0.31766672423170983,-0.41530112027453125,0,0,0,1
2.786819925337341,-0.1812331842317099,-0.8031150402745312,0,0,0,1
2.786819925337341,-0.1812331842317099,-0.8031150402745312,0,0,0,1
1.981443925337341,-0.13672239423170987,-0.4919191302745312,0,0,0,1
0.21596576533734088,-0.49961028423170983,0.4472526897254688,0,0,0,1
-1.697970874662659,0.5180742157682902,0.6006855697254688,0,0,0,1
-1.697970874662659,0.5180742157682902,0.6006855697254688,0,0,0,1
-1.697970874662659,0.5180742157682902,0.6006855697254688,0,0,0,1
-1.697970874662659,0.5180742157682902,0.6006855697254688,0,0,0,1
-1.697970874662659,0.5180742157682902,0.6006855697254688,0,0,0,1
-0.07407997466265911,0.8556900157682902,0.7248620197254688,0,0,0,1
1.477167625337341,0.12987162576829012,-0.06165954627453122,0,0,0,1
1.477167625337341,0.12987162576829012,-0.06165954627453122,0,0,0,1
-1.473361474662659,0.8381657157682901,0.32234563972546876,0,0,0,1
0.10739089533734089,0.9945688157682901,0.8987899697254689,0,0,0,1
1.459721125337341,0.1936865057682901,0.15103336972546877,0,0,0,1
1.049457125337341,-0.24001385423170987,-0.44485453027453126,0,0,0,1
0.6076560253373409,-0.38374948423170985,-0.27748314027453125,0,0,0,1
-0.38990734466265914,0.4368885357682901,-0.4636018602745312,0,0,0,1
-0.8369002146626591,1.27568331576829,-0.4617039302745312,0,0,0,1
-0.8369002146626591,1.27568331576829,-0.4617039302745312,0,0,0,1
-0.2070441046626591,0.7777957157682901,-0.27202608027453123,0,0,0,1
-0.2070441046626591,0.7777957157682901,-0.27202608027453123,0,0,0,1
1.571782625337341,-0.12125096823170987,0.6823351197254688,0,0,0,1
1.571782625337341,-0.12125096823170987,0.6823351197254688,0,0,0,1
-1.420698674662659,-0.10168791923170988,-0.08898363027453123,0,0,0,1
-2.202061674662659,0.5124686557682901,0.22563239972546878,0,0,0,1
-0.8453650346626591,0.7409246757682901,0.39400976972546875,0,0,0,1
1.940084925337341,0.38324141576829013,-0.7768004302745312,0,0,0,1
1.940084925337341,0.38324141576829013,-0.7768004302745312,0,0,0,1
1.940084925337341,0.38324141576829013,-0.7768004302745312,0,0,0,1
-0.2799839746626591,-1.21241508423171,-0.16536895027453122,0,0,0,1
-1.699131474662659,0.06103159876829013,0.41060901972546876,0,0,0,1
-1.028615474662659,0.5638814757682902,0.9234936497254689,0,0,0,1
-1.028615474662659,0.5638814757682902,0.9234936497254689,0,0,0,1
2.1735607253373406,-0.1313959842317099,-0.35862354027453125,0,0,0,1
1.558757325337341,-0.13721574423170987,-1.228634180274531,0,0,0,1
1.558757325337341,-0.13721574423170987,-1.228634180274531,0,0,0,1
-1.374443474662659,0.12373762176829013,-0.8008499802745311,0,0,0,1
-2.5040172746626594,0.11574457576829013,-0.24850491027453123,0,0,0,1
-1.010893274662659,0.6956198157682901,1.0611772197254687,0,0,0,1
2.205892125337341,1.10527301576829,0.6524806197254688,0,0,0,1
2.205892125337341,1.10527301576829,0.6524806197254688,0,0,0,1
-1.510183774662659,0.44913514576829017,-0.6931594302745312,0,0,0,1
-1.567635074662659,0.9761392157682901,0.22526531972546876,0,0,0,1
-1.567635074662659,0.9761392157682901,0.22526531972546876,0,0,0,1
-0.4142145946626591,1.18737461576829,0.24949311972546878,0,0,0,1
2.049770825337341,-0.8072002342317098,-0.5808400802745312,0,0,0,1
1.314146525337341,-0.7386376842317098,-0.35239962027453126,0,0,0,1
1.314146525337341,-0.7386376842317098,-0.35239962027453126,0,0,0,1
-2.2741665746626594,1.33287881576829,0.7615572197254689,0,0,0,1
-2.2741665746626594,1.33287881576829,0.7615572197254689,0,0,0,1
-0.10336349466265911,0.2757870157682901,0.24452411972546878,0,0,0,1
-0.10336349466265911,0.2757870157682901,0.24452411972546878,0,0,0,1
1.788017725337341,-0.6005779342317099,-1.007981180274531,0,0,0,1
1.788017725337341,-0.6005779342317099,-1.007981180274531,0,0,0,1
3.417489525337341,-1.47839548423171,-1.0919191802745312,0,0,0,1
0.3170838553373409,-0.8185127842317098,-0.6193542202745311,0,0,0,1
0.3170838553373409,-0.8185127842317098,-0.6193542202745311,0,0,0,1
-3.4871772746626593,1.93815671576829,1.2097434197254688,0,0,0,1
2.7268472253373406,-1.2229102842317099,-0.3629157302745312,0,0,0,1
2.7268472253373406,-1.2229102842317099,-0.3629157302745312,0,0,0,1
4.470077025337341,-1.15649098423171,-0.046547325274531225,0,0,0,1
4.470077025337341,-1.15649098423171,-0.046547325274531225,0,0,0,1
-1.734059774662659,0.44265805576829015,-0.10261753027453123,0,0,0,1
-1.734059774662659,0.44265805576829015,-0.10261753027453123,0,0,0,1
-1.734059774662659,0.44265805576829015,-0.10261753027453123,0,0,0,1
-1.734059774662659,0.44265805576829015,-0.10261753027453123,0,0,0,1
2.376846725337341,0.8187446757682901,0.7593651697254689,0,0,0,1
1.321903725337341,-0.21361888423170988,-1.1569314802745312,0,0,0,1
1.321903725337341,-0.21361888423170988,-1.1569314802745312,0,0,0,1
-0.9475827046626591,-1.35891678423171,-0.7909376802745312,0,0,0,1
-2.2617940746626592,-0.9099671842317099,-0.3274206202745312,0,0,0,1
-2.2617940746626592,-0.9099671842317099,-0.3274206202745312,0,0,0,1
1.355811625337341,0.45148491576829014,0.5000239197254688,0,0,0,1
1.355811625337341,0.45148491576829014,0.5000239197254688,0,0,0,1
1.355811625337341,0.45148491576829014,0.5000239197254688,0,0,0,1
2.7064433253373408,0.13086824576829012,0.23742338972546878,0,0,0,1
2.7116170253373406,-0.2395736642317099,-0.26735518027453126,0,0,0,1
1.434431525337341,-0.5362947842317098,-0.5812498802745312,0,0,0,1
1.434431525337341,-0.5362947842317098,-0.5812498802745312,0,0,0,1
-1.569318274662659,0.31605206576829015,-0.24636904027453124,0,0,0,1
-1.569318274662659,0.31605206576829015,-0.24636904027453124,0,0,0,1
0.7737918253373409,1.67521091576829,-0.07107505027453123,0,0,0,1
0.7737918253373409,1.67521091576829,-0.07107505027453123,0,0,0,1
0.27506592533734087,-1.0934972842317099,0.13638346972546878,0,0,0,1
0.4776311053373409,-1.4431871842317099,-0.16273740027453124,0,0,0,1
0.46000052533734087,-0.1602853642317099,-0.004854531674531225,0,0,0,1
0.8950143253373409,0.5155157657682902,-0.9175193802745312,0,0,0,1
0.8950143253373409,0.5155157657682902,-0.9175193802745312,0,0,0,1
0.5449366753373409,-0.26668588423170986,-0.37069455027453124,0,0,0,1
-1.233584874662659,-0.36309982423170983,-0.6197627802745311,0,0,0,1
-1.233584874662659,-0.36309982423170983,-0.6197627802745311,0,0,0,1
-1.233584874662659,-0.36309982423170983,-0.6197627802745311,0,0,0,1
-2.2040013746626594,-0.12618170423170988,0.04658743572546878,0,0,0,1
-2.2040013746626594,-0.12618170423170988,0.04658743572546878,0,0,0,1
-1.450694574662659,-0.18417094423170988,0.36712699972546875,0,0,0,1
1.662509425337341,-0.4506711842317099,-0.08664498027453123,0,0,0,1
3.2506919253373407,0.022049236768290126,0.5749017197254688,0,0,0,1
0.6540675253373409,2.0542033157682904,0.2566208197254688,0,0,0,1
0.6540675253373409,2.0542033157682904,0.2566208197254688,0,0,0,1
-1.211264074662659,-0.8953683242317099,-0.9275474802745312,0,0,0,1
-1.211264074662659,-0.8953683242317099,-0.9275474802745312,0,0,0,1
0.5097460953373409,-0.40064193423170985,-0.6266239802745311,0,0,0,1
1.906719725337341,0.8164674157682902,-0.4085370002745312,0,0,0,1
1.906719725337341,0.8164674157682902,-0.4085370002745312,0,0,0,1
1.906719725337341,0.8164674157682902,-0.4085370002745312,0,0,0,1
2.3853097253373408,0.6251484157682902,0.19319435972546878,0,0,0,1
1.501709525337341,0.06815253576829013,0.2925934797254688,0,0,0,1
-0.5628218746626591,-0.07750798423170988,0.7628255797254688,0,0,0,1
-0.5628218746626591,-0.07750798423170988,0.7628255797254688,0,0,0,1
-2.0967983746626593,0.26656206576829017,1.1354062197254688,0,0,0,1
-1.575851874662659,0.9301014157682902,1.2308008197254687,0,0,0,1
1.252901525337341,1.7075884157682901,-0.15193078027453122,0,0,0,1
1.699766625337341,1.33518171576829,-1.075723180274531,0,0,0,1
1.699766625337341,1.33518171576829,-1.075723180274531,0,0,0,1
0.5099272853373409,-1.14114138423171,-1.2823879802745313,0,0,0,1
-0.2089476446626591,0.8414647757682902,-0.7194887102745312,0,0,0,1
-0.2089476446626591,0.8414647757682902,-0.7194887102745312,0,0,0,1
-0.2089476446626591,0.8414647757682902,-0.7194887102745312,0,0,0,1
-0.2672448046626591,2.3097954157682903,0.6667248897254688,0,0,0,1
-1.072375774662659,1.49967351576829,1.0887421197254687,0,0,0,1
2.0125107253373407,-0.5250015842317098,0.5125806197254689,0,0,0,1
2.0125107253373407,-0.5250015842317098,0.5125806197254689,0,0,0,1
2.0125107253373407,-0.5250015842317098,0.5125806197254689,0,0,0,1
1.268644825337341,0.44535681576829017,-0.5150749402745312,0,0,0,1
-0.6233372746626591,1.30096821576829,-0.36702082027453126,0,0,0,1
-0.7546038746626591,0.37541757576829016,0.03990813972546878,0,0,0,1
-0.2486624546626591,-0.8134525842317099,-0.39877960027453124,0,0,0,1
-0.2486624546626591,-0.8134525842317099,-0.39877960027453124,0,0,0,1
-0.2486624546626591,-0.8134525842317099,-0.39877960027453124,0,0,0,1
-0.2486624546626591,-0.8134525842317099,-0.39877960027453124,0,0,0,1
0.3783641053373409,1.71141401576829,0.19844918972546877,0,0,0,1
0.4137778453373409,-0.11242790423170987,-0.27431211027453123,0,0,0,1
0.2574286653373409,0.9433536757682901,-0.11799523027453122,0,0,0,1
0.2574286653373409,0.9433536757682901,-0.11799523027453122,0,0,0,1
1.499601825337341,0.38736696576829016,-0.08547702627453123,0,0,0,1
1.499601825337341,0.38736696576829016,-0.08547702627453123,0,0,0,1
-0.5480589746626591,-0.009954790231709872,0.008412329725468775,0,0,0,1
-0.5480589746626591,-0.009954790231709872,0.008412329725468775,0,0,0,1
-1.210232274662659,-0.6561691842317099,-0.4522914602745312,0,0,0,1
-0.4394287946626591,-1.70551488423171,-0.07838801027453123,0,0,0,1
0.2504964053373409,-1.07284408423171,-0.15957865027453122,0,0,0,1
0.1932244453373409,0.9135328157682902,0.6721568197254688,0,0,0,1
0.7059025953373409,2.4843771157682903,0.47880634972546876,0,0,0,1
0.6924185953373408,-0.5916475442317098,-0.7488544302745311,0,0,0,1
0.6924185953373408,-0.5916475442317098,-0.7488544302745311,0,0,0,1
-0.2712645346626591,-1.39938898423171,-0.9167297802745312,0,0,0,1
0.2414632053373409,-0.39626852423170983,-0.005057962274531225,0,0,0,1
0.2414632053373409,-0.39626852423170983,-0.005057962274531225,0,0,0,1
-0.7423701146626591,0.1731630557682901,0.14784949972546876,0,0,0,1
-0.7423701146626591,0.1731630557682901,0.14784949972546876,0,0,0,1
-0.3422398446626591,0.8188142157682902,0.3984889397254688,0,0,0,1
-0.3422398446626591,0.8188142157682902,0.3984889397254688,0,0,0,1
0.9697385253373408,-0.33674810423170987,0.13185401972546876,0,0,0,1
-0.3518843446626591,-0.5321538242317099,-0.3305729302745312,0,0,0,1
1.000297125337341,-0.7774720842317099,-0.4304799802745312,0,0,0,1
1.000297125337341,-0.7774720842317099,-0.4304799802745312,0,0,0,1
0.3588452453373409,0.5973695657682901,-0.27742240027453124,0,0,0,1
0.3588452453373409,0.5973695657682901,-0.27742240027453124,0,0,0,1
-0.43488643466265914,2.11554291576829,0.5451355897254688,0,0,0,1
-0.43488643466265914,2.11554291576829,0.5451355897254688,0,0,0,1
0.7911029253373408,0.7884273157682902,0.29739176972546877,0,0,0,1
0.8907151253373409,-0.9122853842317099,-0.21790281027453123,0,0,0,1
0.2864651853373409,-2.84813908423171,-0.7002017202745312,0,0,0,1
0.2864651853373409,-2.84813908423171,-0.7002017202745312,0,0,0,1
0.2864651853373409,-2.84813908423171,-0.7002017202745312,0,0,0,1
-0.5287689746626592,1.5794901157682901,1.6263526197254687,0,0,0,1
-0.5287689746626592,1.5794901157682901,1.6263526197254687,0,0,0,1
1.062994525337341,0.46320281576829014,-0.2507734002745312,0,0,0,1
2.1025920253373407,-1.38564048423171,-0.9722066802745312,0,0,0,1
-0.9167837746626591,1.11239771576829,-0.18613699027453123,0,0,0,1
-1.376962174662659,1.16299651576829,0.5667049597254689,0,0,0,1
-1.376962174662659,1.16299651576829,0.5667049597254689,0,0,0,1
-1.376962174662659,1.16299651576829,0.5667049597254689,0,0,0,1
-1.376962174662659,1.16299651576829,0.5667049597254689,0,0,0,1
-1.376962174662659,1.16299651576829,0.5667049597254689,0,0,0,1
1.095093225337341,-1.47685688423171,0.06828376472546877,0,0,0,1
1.095093225337341,-1.47685688423171,0.06828376472546877,0,0,0,1
2.432985725337341,-2.0013112842317096,-0.3587620602745312,0,0,0,1
2.432985725337341,-2.0013112842317096,-0.3587620602745312,0,0,0,1
0.8448434253373409,0.19080597576829011,-0.27254924027453126,0,0,0,1
0.8448434253373409,0.19080597576829011,-0.27254924027453126,0,0,0,1
-1.488507774662659,2.0553637157682902,0.22596498972546877,0,0,0,1
-1.488507774662659,2.0553637157682902,0.22596498972546877,0,0,0,1
0.29004718533734086,-2.15721078423171,-0.41190448027453125,0,0,0,1
1.219445725337341,-2.51691578423171,-0.7477655102745312,0,0,0,1
1.219445725337341,-2.51691578423171,-0.7477655102745312,0,0,0,1
2.139470625337341,-0.08052675423170987,0.19378059972546877,0,0,0,1
2.139470625337341,-0.08052675423170987,0.19378059972546877,0,0,0,1
-0.06667278466265911,0.6220159757682902,0.4744720997254688,0,0,0,1
-1.954656074662659,0.2683279157682901,0.4797930397254688,0,0,0,1
-2.0833802746626593,0.10821887576829013,0.5659760497254688,0,0,0,1
-0.9347691346626591,0.37458376576829017,0.15181016972546876,0,0,0,1
-0.9347691346626591,0.37458376576829017,0.15181016972546876,0,0,0,1
0.9949975253373409,0.5831017157682902,0.026821283725468773,0,0,0,1
2.5488447253373407,0.28537987576829016,-0.5079916802745311,0,0,0,1
2.5488447253373407,0.28537987576829016,-0.5079916802745311,0,0,0,1
2.903605025337341,-0.04645496423170987,-0.7080928802745312,0,0,0,1
2.903605025337341,-0.04645496423170987,-0.7080928802745312,0,0,0,1
1.000166425337341,0.06924413576829012,0.8778577197254688,0,0,0,1
1.835268525337341,0.8474877157682902,0.9639092197254688,0,0,0,1
1.762912325337341,-0.7260224842317099,-0.46129068027453124,0,0,0,1
-0.10657070466265911,-1.3489503842317099,-1.0376246802745313,0,0,0,1
-1.231250274662659,-0.42681304423170985,-0.6258704402745312,0,0,0,1
-0.6496500746626591,0.7425303657682901,-0.060407490274531225,0,0,0,1
0.14443828533734088,0.6527434157682901,0.14522671972546877,0,0,0,1
0.4848971553373409,-1.0622605842317099,0.009164063725468775,0,0,0,1
0.4706130253373409,-1.34710538423171,0.032982139725468776,0,0,0,1
-0.37483929466265914,-0.17692610423170987,0.5231622197254688,0,0,0,1
-0.4238943746626591,1.07603071576829,0.43200894972546877,0,0,0,1
1.210650025337341,0.8749227657682901,0.40103634972546875,0,0,0,1
1.210650025337341,0.8749227657682901,0.40103634972546875,0,0,0,1
2.160541025337341,-0.09938925423170987,-0.6963795802745312,0,0,0,1
-1.470904774662659,-0.5682196442317099,-0.20143804027453122,0,0,0,1
-1.470904774662659,-0.5682196442317099,-0.20143804027453122,0,0,0,1
-1.476430374662659,-0.5971637842317099,-0.07020816327453122,0,0,0,1
-1.476430374662659,-0.5971637842317099,-0.07020816327453122,0,0,0,1
2.205575525337341,0.3547029957682901,0.8025210197254689,0,0,0,1
1.907323425337341,0.5504328157682902,0.25201711972546875,0,0,0,1
-1.027048574662659,0.1512747557682901,-0.4668869102745312,0,0,0,1
-0.9729151746626591,-0.26860688423170986,-0.5167443502745311,0,0,0,1
1.736516525337341,0.5145817157682901,-0.3647826602745312,0,0,0,1
-0.7630133746626591,-1.1346110842317099,-0.10853234027453124,0,0,0,1
-1.046567374662659,-0.5000199842317099,0.2474362497254688,0,0,0,1
-1.046567374662659,-0.5000199842317099,0.2474362497254688,0,0,0,1
-0.21912430466265911,0.47252301576829014,0.7237449597254688,0,0,0,1
0.8443131653373409,-0.17668147423170988,0.13899394972546877,0,0,0,1
1.613193025337341,-0.6458961842317098,-0.23116502027453123,0,0,0,1
1.613193025337341,-0.6458961842317098,-0.23116502027453123,0,0,0,1
1.613193025337341,-0.6458961842317098,-0.23116502027453123,0,0,0,1
-0.7369665746626591,0.6053200157682902,0.3783872397254688,0,0,0,1
-0.11860035466265911,0.9014292157682902,0.15335040972546876,0,0,0,1
2.318651725337341,-0.7672108242317098,0.14692887972546878,0,0,0,1
1.961977525337341,-0.6067516842317099,-0.4955537002745312,0,0,0,1
1.961977525337341,-0.6067516842317099,-0.4955537002745312,0,0,0,1
0.2059960553373409,0.33037869576829015,-0.5161539802745312,0,0,0,1
0.2059960553373409,0.33037869576829015,-0.5161539802745312,0,0,0,1
-1.432882774662659,0.34268434576829016,-0.11971834427453124,0,0,0,1
-2.4523977746626593,-0.9005492842317099,0.11905478972546876,0,0,0,1
1.755349625337341,-0.2630825842317099,-0.045325072274531225,0,0,0,1
2.087241725337341,0.45406617576829017,0.4264975197254688,0,0,0,1
-0.1687168946626591,0.07324312976829013,-0.08141461027453123,0,0,0,1
-1.481526874662659,-0.0029861147317098713,-0.36643162027453124,0,0,0,1
-1.481526874662659,-0.0029861147317098713,-0.36643162027453124,0,0,0,1
-1.481526874662659,-0.0029861147317098713,-0.36643162027453124,0,0,0,1
0.3704943853373409,0.49192271576829016,-0.3210136602745312,0,0,0,1
0.3704943853373409,0.49192271576829016,-0.3210136602745312,0,0,0,1
0.49826672533734084,0.8025932457682902,0.11090242972546877,0,0,0,1
0.49826672533734084,0.8025932457682902,0.11090242972546877,0,0,0,1
0.015253560337340894,-0.03106189923170987,0.15824460972546878,0,0,0,1
-1.410995974662659,-0.9460987842317099,-0.13859722027453122,0,0,0,1
-1.410995974662659,-0.9460987842317099,-0.13859722027453122,0,0,0,1
0.43158485533734087,-0.7654925442317099,0.3489460197254688,0,0,0,1
0.9383530753373409,1.19942131576829,0.3589249797254688,0,0,0,1
0.9383530753373409,1.19942131576829,0.3589249797254688,0,0,0,1
0.19815398533734088,0.8830949857682902,-0.5050667802745312,0,0,0,1
-0.18779323466265913,-0.2840672242317099,-0.4854875502745312,0,0,0,1
-1.893006274662659,-0.5540172242317098,-0.6358044502745311,0,0,0,1
-0.9234185046626591,0.01702033326829013,-0.004447074274531225,0,0,0,1
-0.9234185046626591,0.01702033326829013,-0.004447074274531225,0,0,0,1
1.170430725337341,0.9146404157682901,0.2573929397254688,0,0,0,1
1.952508425337341,0.5378553157682902,0.9113151197254689,0,0,0,1
1.426690625337341,0.18746806576829012,0.27703931972546875,0,0,0,1
0.5220914253373409,-0.48214498423170987,0.22040613972546877,0,0,0,1
0.5220914253373409,-0.48214498423170987,0.22040613972546877,0,0,0,1
-0.36575649466265914,-0.8582505842317099,0.28117364972546877,0,0,0,1
-0.7335467146626591,-0.42991976423170986,0.22566508972546878,0,0,0,1
-0.2473645046626591,0.2500399857682901,0.32966848972546875,0,0,0,1
1.122729825337341,0.45521153576829015,0.13852866972546876,0,0,0,1
1.122729825337341,0.45521153576829015,0.13852866972546876,0,0,0,1
1.900044025337341,-0.03240103723170987,-0.015897961274531226,0,0,0,1
1.758901125337341,-0.15520290423170988,-0.5386463802745312,0,0,0,1
-0.9114928046626591,0.06029273876829013,0.03952821972546878,0,0,0,1
-2.1884288746626592,0.5442695757682902,0.5142529197254688,0,0,0,1
-2.1884288746626592,0.5442695757682902,0.5142529197254688,0,0,0,1
1.403758525337341,0.13554500576829012,0.6942646197254688,0,0,0,1
2.3926835253373406,-0.4450027442317099,-0.06253221827453123,0,0,0,1
2.3926835253373406,-0.4450027442317099,-0.06253221827453123,0,0,0,1
2.0426240253373407,-1.0667948842317099,-0.9638919802745312,0,0,0,1
-2.0013255746626593,0.018749910768290128,-0.4323001802745312,0,0,0,1
-1.580749974662659,0.5748403857682901,-0.5525644102745312,0,0,0,1
-1.580749974662659,0.5748403857682901,-0.5525644102745312,0,0,0,1
-1.580749974662659,0.5748403857682901,-0.5525644102745312,0,0,0,1
0.9504695253373409,0.38940958576829016,-0.4320125802745312,0,0,0,1
0.9504695253373409,0.38940958576829016,-0.4320125802745312,0,0,0,1
1.616976325337341,0.11999173576829013,-0.6254666202745311,0,0,0,1
0.6121983653373408,-0.019180279231709868,-0.8592502202745311,0,0,0,1
0.6121983653373408,-0.019180279231709868,-0.8592502202745311,0,0,0,1
-0.1645998746626591,-0.9115312842317098,0.08566858972546877,0,0,0,1
-1.206379374662659,1.5156716157682901,0.8774099597254689,0,0,0,1
1.370315125337341,1.41839111576829,0.9633335197254689,0,0,0,1
1.370315125337341,1.41839111576829,0.9633335197254689,0,0,0,1
2.513732425337341,0.36118974576829016,-0.06701609627453123,0,0,0,1
-0.3977608546626591,-1.29487418423171,-1.408975380274531,0,0,0,1
-1.871624474662659,-1.34502698423171,-0.8941753802745311,0,0,0,1
-1.871624474662659,-1.34502698423171,-0.8941753802745311,0,0,0,1
-2.602579074662659,-0.13677968423170989,-0.10782745627453123,0,0,0,1
-1.475569274662659,1.80092441576829,0.5620124597254689,0,0,0,1
-1.475569274662659,1.80092441576829,0.5620124597254689,0,0,0,1
2.230427325337341,1.29652621576829,0.5401665197254688,0,0,0,1
1.661671225337341,-0.8529337842317098,-0.22148767027453123,0,0,0,1
1.661671225337341,-0.8529337842317098,-0.22148767027453123,0,0,0,1
0.5943274653373409,-2.4455651842317097,-0.37589558027453124,0,0,0,1
-0.3946471046626591,-2.26826598423171,-0.2849136302745312,0,0,0,1
-1.062756974662659,-0.31943572423170985,0.33915995972546875,0,0,0,1
-1.264230274662659,1.55692741576829,0.6588712597254688,0,0,0,1
-1.264230274662659,1.55692741576829,0.6588712597254688,0,0,0,1
-1.264230274662659,1.55692741576829,0.6588712597254688,0,0,0,1
-0.9366068746626591,1.85055591576829,0.39821773972546876,0,0,0,1
-0.5538716146626591,-0.7380075242317099,-0.6031535802745311,0,0,0,1
0.5481667653373409,-1.13636948423171,-0.6024562402745312,0,0,0,1
0.8866229253373409,2.03460721576829,0.7132013697254689,0,0,0,1
0.8866229253373409,2.03460721576829,0.7132013697254689,0,0,0,1
0.8866229253373409,2.03460721576829,0.7132013697254689,0,0,0,1
-1.061330274662659,0.7325949857682902,0.05838253972546877,0,0,0,1
-1.832468974662659,-1.6133663842317099,-0.20663908027453123,0,0,0,1
-1.832468974662659,-1.6133663842317099,-0.20663908027453123,0,0,0,1
0.5365052253373409,-1.41788268423171,-0.05409118727453122,0,0,0,1
2.540099725337341,-0.34468094423170986,0.001727191725468774,0,0,0,1
2.657781125337341,0.6944811557682902,0.14560487972546876,0,0,0,1
-2.7687492746626594,-1.10365198423171,-0.017514677274531227,0,0,0,1
-2.7687492746626594,-1.10365198423171,-0.017514677274531227,0,0,0,1
-1.359051174662659,-0.9143595542317099,-0.03640291227453123,0,0,0,1
1.524371625337341,0.12506480576829013,0.25074868972546877,0,0,0,1
1.524371625337341,0.12506480576829013,0.25074868972546877,0,0,0,1
2.9372153253373408,1.30778001576829,0.15541141972546876,0,0,0,1
2.9372153253373408,1.30778001576829,0.15541141972546876,0,0,0,1
2.181429425337341,0.6795627657682901,-0.48773512027453125,0,0,0,1
1.344943525337341,-0.8480150842317099,-0.5786019302745312,0,0,0,1
1.344943525337341,-0.8480150842317099,-0.5786019302745312,0,0,0,1
-2.204666074662659,-0.5840330542317098,-0.24984637027453124,0,0,0,1
-0.2468285446626591,0.48100795576829014,0.8570223697254689,0,0,0,1
0.4145054953373409,1.7202756157682901,1.199046119725469,0,0,0,1
0.9608941253373409,1.44893121576829,0.7058469197254689,0,0,0,1
2.1706881253373407,-0.3559461642317099,-0.49794313027453124,0,0,0,1
2.028136725337341,-1.66332958423171,-1.021003780274531,0,0,0,1
-1.765720874662659,0.1550478557682901,-0.5608085102745312,0,0,0,1
-1.765720874662659,0.1550478557682901,-0.5608085102745312,0,0,0,1
-1.765720874662659,0.1550478557682901,-0.5608085102745312,0,0,0,1
-1.765720874662659,0.1550478557682901,-0.5608085102745312,0,0,0,1
-1.326818974662659,1.14631931576829,0.0012993497254687745,0,0,0,1
0.45730162533734087,0.3661067157682901,-0.20020881027453122,0,0,0,1
0.45730162533734087,0.3661067157682901,-0.20020881027453122,0,0,0,1
2.0173755253373407,-1.91169538423171,-0.9893992302745311,0,0,0,1
1.163026325337341,-1.1257173842317099,-0.6689211402745312,0,0,0,1
-0.5707487746626592,0.7355155157682901,-0.08780757027453123,0,0,0,1
-0.5707487746626592,0.7355155157682901,-0.08780757027453123,0,0,0,1
-1.720304974662659,1.6651903157682901,0.32067855972546877,0,0,0,1
1.881791625337341,0.2352933457682901,0.13966735972546876,0,0,0,1
1.881791625337341,0.2352933457682901,0.13966735972546876,0,0,0,1
1.881791625337341,0.2352933457682901,0.13966735972546876,0,0,0,1
1.973340525337341,0.10901822576829014,0.023487179725468772,0,0,0,1
1.973340525337341,0.10901822576829014,0.023487179725468772,0,0,0,1
1.973340525337341,0.10901822576829014,0.023487179725468772,0,0,0,1
1.973340525337341,0.10901822576829014,0.023487179725468772,0,0,0,1
1.973340525337341,0.10901822576829014,0.023487179725468772,0,0,0,1
-1.619139174662659,-0.2435987142317099,-0.3475240502745312,0,0,0,1
0.1890998053373409,0.35632181576829014,-0.005959869974531225,0,0,0,1
0.1890998053373409,0.35632181576829014,-0.005959869974531225,0,0,0,1
0.5557303553373409,0.4888840757682901,-0.30796948027453125,0,0,0,1
0.5557303553373409,0.4888840757682901,-0.30796948027453125,0,0,0,1
1.056317825337341,0.10511799576829013,-0.30251238027453126,0,0,0,1
1.056317825337341,0.10511799576829013,-0.30251238027453126,0,0,0,1
1.224897925337341,-0.5224173842317098,0.05812069972546877,0,0,0,1
-0.03157375666265911,-0.2304168742317099,0.23741751972546876,0,0,0,1
1.327548525337341,-0.02726657423170987,-0.011006028974531226,0,0,0,1
0.8377843253373409,0.33445106576829015,-0.4888731602745312,0,0,0,1
-0.6102537746626591,0.3697564757682901,-0.3208745402745312,0,0,0,1
-1.074989774662659,-0.33817960423170984,-0.6439859802745311,0,0,0,1
-0.8807883146626592,-0.6359651842317099,-0.4838176402745312,0,0,0,1
-0.8807883146626592,-0.6359651842317099,-0.4838176402745312,0,0,0,1
-0.8807883146626592,-0.6359651842317099,-0.4838176402745312,0,0,0,1
-0.5054135146626592,-0.29916192423170984,-0.43092951027453125,0,0,0,1
0.5141701853373409,0.1622798357682901,-0.19568047027453123,0,0,0,1
0.5141701853373409,0.1622798357682901,-0.19568047027453123,0,0,0,1
1.805160025337341,0.7633732757682902,0.2918037497254688,0,0,0,1
1.805160025337341,0.7633732757682902,0.2918037497254688,0,0,0,1
1.771178725337341,1.25269781576829,0.6527881197254688,0,0,0,1
1.771178725337341,1.25269781576829,0.6527881197254688,0,0,0,1
-0.6038393746626591,-0.3721722142317099,-0.22967860027453124,0,0,0,1
-0.8263058746626591,-0.13882900423170988,-0.6963866802745312,0,0,0,1
0.4372344253373409,0.05402024576829013,-0.41699918027453126,0,0,0,1
0.4372344253373409,0.05402024576829013,-0.41699918027453126,0,0,0,1
0.4372344253373409,0.05402024576829013,-0.41699918027453126,0,0,0,1
0.4372344253373409,0.05402024576829013,-0.41699918027453126,0,0,0,1
0.8520474553373409,-0.07996384423170987,-0.18133512027453122,0,0,0,1
0.8520474553373409,-0.07996384423170987,-0.18133512027453122,0,0,0,1
-0.1943411646626591,-0.4090464542317099,-0.24649408027453124,0,0,0,1
0.35774852533734086,-0.4154724342317099,0.09092869972546877,0,0,0,1
0.5947413653373409,-0.2262331642317099,0.49435461972546874,0,0,0,1
-1.032788774662659,0.47080834576829017,0.2439874997254688,0,0,0,1
-0.4352183146626591,-0.06348941923170986,-0.8373686402745312,0,0,0,1
-0.4352183146626591,-0.06348941923170986,-0.8373686402745312,0,0,0,1
-0.4352183146626591,-0.06348941923170986,-0.8373686402745312,0,0,0,1
-0.4352183146626591,-0.06348941923170986,-0.8373686402745312,0,0,0,1
1.676342525337341,-1.17963958423171,-0.7576385802745311,0,0,0,1
0.7004866753373409,-0.1931211442317099,-0.43591668027453123,0,0,0,1
0.7004866753373409,-0.1931211442317099,-0.43591668027453123,0,0,0,1
-1.181026874662659,0.7648029557682902,0.03606316272546878,0,0,0,1
-1.181026874662659,0.7648029557682902,0.03606316272546878,0,0,0,1
-0.7385840246626592,0.23291872576829012,0.7176426197254688,0,0,0,1
-0.7385840246626592,0.23291872576829012,0.7176426197254688,0,0,0,1
-0.3309931546626591,-0.5742387842317098,-0.14625803027453124,0,0,0,1
-0.3309931546626591,-0.5742387842317098,-0.14625803027453124,0,0,0,1
0.7712035253373409,-0.9743349342317098,-0.13494399027453122,0,0,0,1
-0.9495482246626591,0.8048392157682901,-0.25983355027453126,0,0,0,1
-0.4125122746626591,0.38956009576829015,0.15140920972546876,0,0,0,1
-0.8411135746626591,0.03933675976829013,-0.14288125027453122,0,0,0,1
-0.8411135746626591,0.03933675976829013,-0.14288125027453122,0,0,0,1
0.8348717853373409,-0.44084502423170985,0.12647994972546878,0,0,0,1
0.8348717853373409,-0.44084502423170985,0.12647994972546878,0,0,0,1
1.193653625337341,0.46442185576829015,-0.08624807027453123,0,0,0,1
1.193653625337341,0.46442185576829015,-0.08624807027453123,0,0,0,1
0.10690261533734088,0.5645408157682902,-0.09560040027453123,0,0,0,1
0.10690261533734088,0.5645408157682902,-0.09560040027453123,0,0,0,1
0.10690261533734088,0.5645408157682902,-0.09560040027453123,0,0,0,1
-0.021995051662659106,0.5508013157682902,-0.29546186027453125,0,0,0,1
-0.021995051662659106,0.5508013157682902,-0.29546186027453125,0,0,0,1
-0.021995051662659106,0.5508013157682902,-0.29546186027453125,0,0,0,1
0.3854985253373409,0.8819067157682902,-0.42087510027453123,0,0,0,1
0.9483933653373409,-0.5259461242317098,-0.5007009202745312,0,0,0,1
0.9483933653373409,-0.5259461242317098,-0.5007009202745312,0,0,0,1
-0.9533371746626591,-1.06831288423171,0.12101932972546878,0,0,0,1
0.5222544853373409,0.6452749557682902,0.42080014972546875,0,0,0,1
0.5222544853373409,0.6452749557682902,0.42080014972546875,0,0,0,1
1.788263825337341,-0.7715544542317099,-0.18844816027453123,0,0,0,1
1.788263825337341,-0.7715544542317099,-0.18844816027453123,0,0,0,1
0.8592810753373409,-1.01377858423171,-0.8127298802745312,0,0,0,1
0.8592810753373409,-1.01377858423171,-0.8127298802745312,0,0,0,1
-0.7642407246626591,0.03635101376829013,-0.8195979802745311,0,0,0,1
-1.073398074662659,0.6839583157682901,-0.023340077274531225,0,0,0,1
-1.073398074662659,0.6839583157682901,-0.023340077274531225,0,0,0,1
-1.073398074662659,0.6839583157682901,-0.023340077274531225,0,0,0,1
-1.073398074662659,0.6839583157682901,-0.023340077274531225,0,0,0,1
-1.073398074662659,0.6839583157682901,-0.023340077274531225,0,0,0,1
1.776919825337341,-0.9966809842317098,-0.030186565274531226,0,0,0,1
-0.5137810746626591,-0.11468009423170987,0.2431282997254688,0,0,0,1
-0.5137810746626591,-0.11468009423170987,0.2431282997254688,0,0,0,1
-0.7442450346626591,0.2505467557682901,0.06545116972546877,0,0,0,1
-0.7074780346626591,0.25891329576829014,0.3315722597254688,0,0,0,1
0.1747231653373409,0.3011540657682901,-0.15877554027453122,0,0,0,1
1.232144825337341,0.23004375576829011,-0.14298120027453123,0,0,0,1
1.377227325337341,0.37808503576829017,-0.5385195802745312,0,0,0,1
1.026419225337341,0.44007591576829014,-0.7784027202745312,0,0,0,1
-1.037200474662659,0.30280535576829015,-0.22782454027453122,0,0,0,1
-1.933046774662659,1.1049185157682901,0.09393256972546878,0,0,0,1
-0.6806206746626591,0.9111079157682902,0.3549187197254688,0,0,0,1
-0.6806206746626591,0.9111079157682902,0.3549187197254688,0,0,0,1
1.023565825337341,0.07201390576829013,0.055145499725468776,0,0,0,1
1.023565825337341,0.07201390576829013,0.055145499725468776,0,0,0,1
1.023565825337341,0.07201390576829013,0.055145499725468776,0,0,0,1
1.023565825337341,0.07201390576829013,0.055145499725468776,0,0,0,1
0.9128489653373408,-0.46253608423170983,-0.5597756802745312,0,0,0,1
-0.1985449646626591,-0.36758658423170987,-0.6077122802745312,0,0,0,1
-0.18733833466265912,-0.06671712923170987,0.45669271972546877,0,0,0,1
-0.18733833466265912,-0.06671712923170987,0.45669271972546877,0,0,0,1
0.8116860253373409,-0.04428286423170987,0.16340299972546876,0,0,0,1
0.7662034253373409,-0.36399973423170984,0.06281554572546877,0,0,0,1
0.7662034253373409,-0.36399973423170984,0.06281554572546877,0,0,0,1
0.038036839337340894,-0.31607185423170986,-0.19073078027453122,0,0,0,1
-0.4244923446626591,0.4433051157682901,0.06854503972546877,0,0,0,1
-0.4244923446626591,0.4433051157682901,0.06854503972546877,0,0,0,1
-0.5949225246626592,0.9708776157682901,0.17520623972546878,0,0,0,1
-0.5949225246626592,0.9708776157682901,0.17520623972546878,0,0,0,1
-0.7916245346626591,1.02138111576829,0.13269808972546876,0,0,0,1
-0.7916245346626591,1.02138111576829,0.13269808972546876,0,0,0,1
-0.20856521466265912,0.6807557557682902,0.030038504725468772,0,0,0,1
1.365101325337341,0.1468925957682901,-0.33512750027453125,0,0,0,1
0.5351462253373409,-0.7911218842317098,-0.16143278027453123,0,0,0,1
-0.8193707346626591,-0.5055215142317099,-0.17041454027453123,0,0,0,1
-0.3337387746626591,0.23581563576829012,0.45094045972546876,0,0,0,1
-0.08111618466265912,0.44755693576829014,0.48433881972546877,0,0,0,1
0.8324675753373408,0.41496955576829014,-0.06121763727453122,0,0,0,1
2.1270967253373407,-0.06301857423170987,0.025706617725468773,0,0,0,1
1.819277325337341,-0.30152715423170984,-0.13850024027453123,0,0,0,1
1.819277325337341,-0.30152715423170984,-0.13850024027453123,0,0,0,1
0.1199793953373409,-0.03336988023170987,-0.48081085027453124,0,0,0,1
0.1199793953373409,-0.03336988023170987,-0.48081085027453124,0,0,0,1
-1.015461474662659,-0.11933312923170987,-0.4797388602745312,0,0,0,1
-1.251723774662659,-0.036369037231709866,0.14227839972546877,0,0,0,1
-1.251723774662659,-0.036369037231709866,0.14227839972546877,0,0,0,1
-1.251723774662659,-0.036369037231709866,0.14227839972546877,0,0,0,1
-0.5796704146626591,0.5777279157682902,0.18737950972546877,0,0,0,1
1.141374125337341,0.23121075576829012,0.33020391972546875,0,0,0,1
1.141374125337341,0.23121075576829012,0.33020391972546875,0,0,0,1
2.1907334253373407,-0.5329250542317099,-0.26773921027453124,0,0,0,1
2.1907334253373407,-0.5329250542317099,-0.26773921027453124,0,0,0,1
1.788539425337341,-0.6869991842317098,-0.7690069802745312,0,0,0,1
0.4806571253373409,-0.24024443423170988,-0.44946118027453125,0,0,0,1
-0.8846688146626591,0.44934849576829017,-0.8006466302745312,0,0,0,1
-1.703143574662659,0.9471475157682901,0.3135619997254688,0,0,0,1
-1.703143574662659,0.9471475157682901,0.3135619997254688,0,0,0,1
-1.285336974662659,1.64222991576829,0.16749584972546877,0,0,0,1
0.2592940453373409,1.17837291576829,0.07918920972546876,0,0,0,1
0.2592940453373409,1.17837291576829,0.07918920972546876,0,0,0,1
1.571503225337341,-1.65909118423171,-1.0687346802745312,0,0,0,1
1.571503225337341,-1.65909118423171,-1.0687346802745312,0,0,0,1
0.5289120853373409,-1.96886208423171,-0.6680653802745312,0,0,0,1
-0.5425820146626591,-0.6270295842317098,-0.049611360274531224,0,0,0,1
-0.5425820146626591,-0.6270295842317098,-0.049611360274531224,0,0,0,1
-0.5425820146626591,-0.6270295842317098,-0.049611360274531224,0,0,0,1
-0.9239058346626591,1.27158001576829,0.8659029897254689,0,0,0,1
-0.5252547146626592,1.55900011576829,0.9375490797254689,0,0,0,1
0.7593474253373409,-0.6546014842317098,-0.24215052027453124,0,0,0,1
1.760754125337341,-2.1913190842317096,-0.5476907202745311,0,0,0,1
1.724254125337341,-1.39265098423171,-1.0785049802745312,0,0,0,1
0.8634629253373409,-0.16023038423170988,-0.6070775102745312,0,0,0,1
0.0583586853373409,1.10107761576829,-0.027809890274531224,0,0,0,1
-2.122711274662659,1.87027281576829,0.6157446197254688,0,0,0,1
-0.7741408146626592,1.19498181576829,-0.27743402027453123,0,0,0,1
1.015055225337341,-1.16883548423171,0.3804050397254688,0,0,0,1
1.015055225337341,-1.16883548423171,0.3804050397254688,0,0,0,1
1.015055225337341,-1.16883548423171,0.3804050397254688,0,0,0,1
1.886271025337341,-1.66800158423171,-0.40312734027453123,0,0,0,1
1.886271025337341,-1.66800158423171,-0.40312734027453123,0,0,0,1
2.5415044253373407,0.031046795768290128,-0.055783303274531224,0,0,0,1
2.5415044253373407,0.031046795768290128,-0.055783303274531224,0,0,0,1
1.505373525337341,1.07117321576829,-0.08037481027453124,0,0,0,1
-2.3158182746626594,-0.29583482423170987,-0.3572224402745312,0,0,0,1
-2.3158182746626594,-0.29583482423170987,-0.3572224402745312,0,0,0,1
-2.4018654746626593,-1.41617148423171,-0.23581374027453122,0,0,0,1
-0.8032612746626591,-1.28692768423171,-0.3862907302745312,0,0,0,1
1.009616425337341,-0.36968503423170984,0.7229091797254689,0,0,0,1
1.009616425337341,-0.36968503423170984,0.7229091797254689,0,0,0,1
2.842834925337341,1.00289801576829,0.16112043972546877,0,0,0,1
2.9498487253373407,1.58844261576829,-0.034756334274531224,0,0,0,1
0.9144168253373409,0.9826125157682901,-1.1149188802745311,0,0,0,1
0.9144168253373409,0.9826125157682901,-1.1149188802745311,0,0,0,1
-0.9151282146626591,0.008185285768290128,-0.9425633302745312,0,0,0,1
-2.902449074662659,-0.9566596842317099,-1.140244480274531,0,0,0,1
-3.423266374662659,-0.7827201842317099,-0.9799264802745312,0,0,0,1
-1.632422874662659,0.08276732576829013,-0.4096137602745312,0,0,0,1
2.8204045253373407,0.34945078576829014,0.6865337797254688,0,0,0,1
2.7717299253373406,0.05318643576829013,0.14553301972546878,0,0,0,1
2.7717299253373406,0.05318643576829013,0.14553301972546878,0,0,0,1
2.0135779253373407,-0.19727183423170988,-0.7300006802745311,0,0,0,1
2.0135779253373407,-0.19727183423170988,-0.7300006802745311,0,0,0,1
2.0135779253373407,-0.19727183423170988,-0.7300006802745311,0,0,0,1
-4.348106874662659,0.7814419157682901,-0.2701959302745312,0,0,0,1
-4.348106874662659,0.7814419157682901,-0.2701959302745312,0,0,0,1
0.06916763033734089,0.35901441576829013,0.3852308397254688,0,0,0,1
2.047764325337341,-0.5716542842317098,-0.9283488802745312,0,0,0,1
0.7460046253373409,-0.8526169842317098,-0.5527088402745312,0,0,0,1
-2.270158274662659,0.7756599157682902,0.40939786972546877,0,0,0,1
-2.270158274662659,0.7756599157682902,0.40939786972546877,0,0,0,1
0.4984116753373409,-0.21943227423170988,0.2529827597254688,0,0,0,1
0.4984116753373409,-0.21943227423170988,0.2529827597254688,0,0,0,1
2.6991296253373407,-0.8460279842317099,-0.5957389802745312,0,0,0,1
3.6249919253373406,-0.7838904842317098,-0.7553619502745311,0,0,0,1
-1.737683774662659,0.0032171194382901286,-0.8166700802745311,0,0,0,1
-1.737683774662659,0.0032171194382901286,-0.8166700802745311,0,0,0,1
-1.737683774662659,0.0032171194382901286,-0.8166700802745311,0,0,0,1
-3.318156674662659,-0.5238702842317099,-0.45027483027453125,0,0,0,1
-3.318156674662659,-0.5238702842317099,-0.45027483027453125,0,0,0,1
-3.318156674662659,-0.5238702842317099,-0.45027483027453125,0,0,0,1
-3.318156674662659,-0.5238702842317099,-0.45027483027453125,0,0,0,1
-0.49048851466265914,1.93859021576829,0.7926449197254688,0,0,0,1
1.793881925337341,1.85672141576829,0.015710113725468773,0,0,0,1
3.6240907253373407,0.6496144757682901,-0.5954437802745312,0,0,0,1
3.6240907253373407,0.6496144757682901,-0.5954437802745312,0,0,0,1
3.324861025337341,-0.6684652342317099,-1.4469168802745311,0,0,0,1
0.8527970253373409,-1.2121686842317099,-1.886859080274531,0,0,0,1
-2.1130222746626592,-0.7987589842317099,-1.544288780274531,0,0,0,1
-3.955506274662659,0.45894311576829017,-0.40865043027453124,0,0,0,1
-3.658674674662659,1.4543593157682901,0.4029488597254688,0,0,0,1
-1.636807874662659,1.26985101576829,1.0477759197254688,0,0,0,1
-1.636807874662659,1.26985101576829,1.0477759197254688,0,0,0,1
1.298252625337341,0.7769213157682902,0.6516518197254688,0,0,0,1
3.1481700253373406,-0.5280457842317099,0.13072123972546876,0,0,0,1
3.487637025337341,-1.05218838423171,-0.8746938402745311,0,0,0,1
1.880346825337341,-1.08924268423171,-1.299142180274531,0,0,0,1
1.880346825337341,-1.08924268423171,-1.299142180274531,0,0,0,1
-3.685555874662659,2.4179599157682903,0.17830657972546876,0,0,0,1
2.2332969253373407,-1.9143185842317099,-1.5500503802745311,0,0,0,1
2.2332969253373407,-1.9143185842317099,-1.5500503802745311,0,0,0,1
3.3947425253373407,-2.3634140842317097,-1.0203958802745312,0,0,0,1
2.8416237253373406,-1.19073438423171,-0.37730721027453124,0,0,0,1
2.8416237253373406,-1.19073438423171,-0.37730721027453124,0,0,0,1
2.8416237253373406,-1.19073438423171,-0.37730721027453124,0,0,0,1
0.7737517253373409,1.16155891576829,0.6041798197254689,0,0,0,1
0.7737517253373409,1.16155891576829,0.6041798197254689,0,0,0,1
-1.528890074662659,2.6152902157682902,0.4390617897254688,0,0,0,1
0.3317256253373409,-2.5713004842317098,-0.9752748302745312,0,0,0,1
0.3317256253373409,-2.5713004842317098,-0.9752748302745312,0,0,0,1
1.706418525337341,-1.35759828423171,-1.0479455802745312,0,0,0,1
2.540269425337341,0.7278954157682902,-0.14483115027453122,0,0,0,1
2.221483725337341,2.16808841576829,0.5678962197254688,0,0,0,1
1.001968925337341,2.35649851576829,0.5286035197254688,0,0,0,1
-0.19702480466265912,0.8516074157682901,-0.18223819027453123,0,0,0,1
-0.7632689346626591,-0.40064748423170987,-1.4016947802745312,0,0,0,1
-0.8001818746626591,-1.09798788423171,-1.4862346802745312,0,0,0,1
-0.8001818746626591,-1.09798788423171,-1.4862346802745312,0,0,0,1
0.3691468253373409,0.23543041576829013,-0.2526783702745312,0,0,0,1
1.022217325337341,1.00632391576829,0.15845441972546878,0,0,0,1
1.547191125337341,1.2256017157682901,-0.06542793027453123,0,0,0,1
1.441908425337341,-0.6926000842317098,-0.14495215027453123,0,0,0,1
1.441908425337341,-0.6926000842317098,-0.14495215027453123,0,0,0,1
1.441908425337341,-0.6926000842317098,-0.14495215027453123,0,0,0,1
-0.4717755146626591,-1.39788978423171,-0.8112451802745312,0,0,0,1
-0.4717755146626591,-1.39788978423171,-0.8112451802745312,0,0,0,1
-1.641991074662659,0.38530244576829015,-0.5006419802745312,0,0,0,1
-1.257307474662659,1.7773571157682901,0.13497128972546876,0,0,0,1
-1.257307474662659,1.7773571157682901,0.13497128972546876,0,0,0,1
0.19943668533734088,1.41812131576829,-0.19821903027453122,0,0,0,1
1.539294725337341,0.1908234957682901,-0.5097463802745311,0,0,0,1
2.1443287253373406,-0.7844199842317099,-2.0015889802745312,0,0,0,1
0.3425555253373409,-1.16709568423171,-1.3919616802745312,0,0,0,1
-2.2836818746626593,-0.40091164423170983,-0.36775443027453125,0,0,0,1
-2.7120055746626592,1.49757501576829,1.2986240197254688,0,0,0,1
-2.7120055746626592,1.49757501576829,1.2986240197254688,0,0,0,1
0.2537188653373409,1.09970831576829,1.6192605197254688,0,0,0,1
0.2537188653373409,1.09970831576829,1.6192605197254688,0,0,0,1
2.443335025337341,0.11190225576829013,0.35756483972546876,0,0,0,1
3.294843225337341,-0.8104376842317098,-0.2543021802745312,0,0,0,1
3.294843225337341,-0.8104376842317098,-0.2543021802745312,0,0,0,1
3.2567697253373407,-1.04314488423171,-1.2945592802745312,0,0,0,1
3.2567697253373407,-1.04314488423171,-1.2945592802745312,0,0,0,1
1.866485125337341,-1.03435048423171,-1.9034733802745312,0,0,0,1
-3.691229274662659,1.02062831576829,-0.15510824027453124,0,0,0,1
-3.4436115746626594,1.1402042157682901,0.2826297197254688,0,0,0,1
-3.4436115746626594,1.1402042157682901,0.2826297197254688,0,0,0,1
1.224746225337341,-0.3656255842317099,0.09274246972546878,0,0,0,1
2.3240819253373406,-1.00390018423171,-0.05319157427453122,0,0,0,1
2.9597097253373406,-0.8827699242317099,0.18253561972546878,0,0,0,1
-1.076752174662659,2.0301173157682904,0.3890541797254688,0,0,0,1
-1.076752174662659,2.0301173157682904,0.3890541797254688,0,0,0,1
-1.076752174662659,2.0301173157682904,0.3890541797254688,0,0,0,1
-1.732348874662659,2.23431211576829,0.20851292972546878,0,0,0,1
-1.732348874662659,2.23431211576829,0.20851292972546878,0,0,0,1
-1.732348874662659,2.23431211576829,0.20851292972546878,0,0,0,1
0.5714516753373409,-0.7765640842317099,-1.2367146802745312,0,0,0,1
0.5714516753373409,-0.7765640842317099,-1.2367146802745312,0,0,0,1
0.5714516753373409,-0.7765640842317099,-1.2367146802745312,0,0,0,1
0.4285664753373409,-1.12870138423171,-1.4767975802745312,0,0,0,1
0.4285664753373409,-1.12870138423171,-1.4767975802745312,0,0,0,1
1.875422925337341,1.02504911576829,-0.16954652027453124,0,0,0,1
-1.316372374662659,0.9463668657682901,-0.32529298027453124,0,0,0,1
-1.462687974662659,-1.22413858423171,-0.7292928402745312,0,0,0,1
-0.5083708746626591,-3.06634088423171,-0.4072253402745312,0,0,0,1
0.0023541613373408944,-1.97174508423171,0.3667500197254688,0,0,0,1
0.0023541613373408944,-1.97174508423171,0.3667500197254688,0,0,0,1
0.0023541613373408944,-1.97174508423171,0.3667500197254688,0,0,0,1
0.5373330253373408,0.6213707157682902,0.4781978697254688,0,0,0,1
0.5373330253373408,0.6213707157682902,0.4781978697254688,0,0,0,1
1.465952425337341,1.7112062157682901,-0.036646695274531224,0,0,0,1
-0.0430331066626591,0.11600296576829013,-0.9607430402745312,0,0,0,1
-1.514628874662659,-1.25928088423171,-1.8477381802745312,0,0,0,1
-0.9153675746626592,0.1957592157682901,-0.9907255802745312,0,0,0,1
0.07863856933734088,1.87680451576829,-0.30223706027453123,0,0,0,1
1.196296225337341,2.58036831576829,0.3015138797254688,0,0,0,1
1.634849125337341,-0.7138342842317098,-0.40111771027453125,0,0,0,1
1.634849125337341,-0.7138342842317098,-0.40111771027453125,0,0,0,1
-1.927315274662659,-1.29109998423171,-0.2534761802745312,0,0,0,1
-1.927315274662659,-1.29109998423171,-0.2534761802745312,0,0,0,1
-2.235788274662659,0.04900621176829013,0.32083521972546875,0,0,0,1
-2.235788274662659,0.04900621176829013,0.32083521972546875,0,0,0,1
-0.3225302546626591,1.18480891576829,0.19577499972546877,0,0,0,1
-0.3225302546626591,1.18480891576829,0.19577499972546877,0,0,0,1
1.832616325337341,-1.39083288423171,-0.30573020027453124,0,0,0,1
1.832616325337341,-1.39083288423171,-0.30573020027453124,0,0,0,1
0.09679080533734088,0.40788133576829017,-0.5411387802745312,0,0,0,1
0.09679080533734088,0.40788133576829017,-0.5411387802745312,0,0,0,1
-1.102880974662659,0.7305035757682902,-0.46737620027453125,0,0,0,1
-1.125282774662659,1.42939091576829,0.35945516972546876,0,0,0,1
-1.125282774662659,1.42939091576829,0.35945516972546876,0,0,0,1
0.3016143053373409,1.38916491576829,0.34543427972546875,0,0,0,1
2.3447833253373407,-0.39614633423170986,-0.3366186302745312,0,0,0,1
1.226089025337341,-1.07742328423171,-0.6827151802745312,0,0,0,1
-0.5301470746626591,-0.7365651842317098,-0.33148948027453123,0,0,0,1
-0.5301470746626591,-0.7365651842317098,-0.33148948027453123,0,0,0,1
-1.996475674662659,0.7300029157682901,0.07704987972546877,0,0,0,1
-1.996475674662659,0.7300029157682901,0.07704987972546877,0,0,0,1
-1.996475674662659,0.7300029157682901,0.07704987972546877,0,0,0,1
-1.042888174662659,0.5826744157682902,0.21715977972546877,0,0,0,1
-1.042888174662659,0.5826744157682902,0.21715977972546877,0,0,0,1
1.416378525337341,-0.12451229423170988,-0.5019337202745312,0,0,0,1
2.3247790253373406,-0.016782891231709875,-0.5637953802745311,0,0,0,1
2.3247790253373406,-0.016782891231709875,-0.5637953802745311,0,0,0,1
1.882901725337341,-0.26871241423170983,-0.7017473302745312,0,0,0,1
-1.477560474662659,1.39162181576829,-0.15560392027453124,0,0,0,1
-1.477560474662659,1.39162181576829,-0.15560392027453124,0,0,0,1
-1.487111574662659,1.69182341576829,0.13659509972546877,0,0,0,1
0.5864520253373409,-0.2537822242317099,-0.5749873202745311,0,0,0,1
0.5864520253373409,-0.2537822242317099,-0.5749873202745311,0,0,0,1
0.5864520253373409,-0.2537822242317099,-0.5749873202745311,0,0,0,1
0.9376340253373409,-0.8118057842317099,-0.9419968802745312,0,0,0,1
1.225668425337341,-0.7055946442317098,-0.6304261802745311,0,0,0,1
1.225668425337341,-0.7055946442317098,-0.6304261802745311,0,0,0,1
-0.9218144246626591,0.45225531576829014,-0.17605576027453124,0,0,0,1
-1.019014774662659,-0.15708215423170988,0.06399335972546877,0,0,0,1
-0.8301653746626592,-0.8039983342317099,0.5491225197254688,0,0,0,1
-0.8301653746626592,-0.8039983342317099,0.5491225197254688,0,0,0,1
-0.7206597146626591,-0.42480225423170986,0.8168160597254688,0,0,0,1
0.9854035253373409,0.25558795576829013,0.5870077897254689,0,0,0,1
2.9643427253373407,0.21597315576829013,0.3427518897254688,0,0,0,1
2.9643427253373407,0.21597315576829013,0.3427518897254688,0,0,0,1
3.0018153253373407,0.16950278576829012,-0.6446377302745312,0,0,0,1
3.0018153253373407,0.16950278576829012,-0.6446377302745312,0,0,0,1
0.7845225253373409,0.10302919576829013,-1.7097921802745313,0,0,0,1
-1.858460874662659,-0.12036864423170987,-1.8493776802745312,0,0,0,1
-4.275705274662659,0.6733580157682901,-0.04001763627453122,0,0,0,1
-0.0012583571626591057,0.8272059757682901,1.184088119725469,0,0,0,1
-0.0012583571626591057,0.8272059757682901,1.184088119725469,0,0,0,1
4.806779425337341,-0.5810917442317098,0.07147004972546878,0,0,0,1
3.5236955253373408,-0.8407798842317099,-0.9064474402745312,0,0,0,1
0.6233926253373409,-0.9358807842317098,-1.179512780274531,0,0,0,1
-2.7402901746626593,-0.46397076423170985,-0.5880775802745312,0,0,0,1
-5.432455474662659,0.42141534576829015,-0.048670323274531226,0,0,0,1
-5.432455474662659,0.42141534576829015,-0.048670323274531226,0,0,0,1
-5.432455474662659,0.42141534576829015,-0.048670323274531226,0,0,0,1
-0.6537737746626591,0.7802805457682901,0.46563296972546875,0,0,0,1
-0.6537737746626591,0.7802805457682901,0.46563296972546875,0,0,0,1
2.6071657253373406,0.5218838657682902,-0.6410621802745312,0,0,0,1
2.6071657253373406,0.5218838657682902,-0.6410621802745312,0,0,0,1
3.236858825337341,-0.6300062342317099,-0.20307532027453123,0,0,0,1
-1.785967774662659,-0.1975664342317099,0.7932890197254688,0,0,0,1
0.7272820653373409,0.6691816157682902,0.5386438697254688,0,0,0,1
0.7272820653373409,0.6691816157682902,0.5386438697254688,0,0,0,1
1.557527125337341,0.5030234157682901,-0.40809694027453125,0,0,0,1
1.532702025337341,-0.060281544231709866,-1.191656880274531,0,0,0,1
0.5156197753373409,-1.39292738423171,-1.272038980274531,0,0,0,1
-3.8435806746626593,-0.14964587423170989,-0.32746974027453124,0,0,0,1
-3.8435806746626593,-0.14964587423170989,-0.32746974027453124,0,0,0,1
-3.8435806746626593,-0.14964587423170989,-0.32746974027453124,0,0,0,1
-1.867704374662659,1.01231871576829,0.8765916197254688,0,0,0,1
-1.867704374662659,1.01231871576829,0.8765916197254688,0,0,0,1
-1.867704374662659,1.01231871576829,0.8765916197254688,0,0,0,1
-1.867704374662659,1.01231871576829,0.8765916197254688,0,0,0,1
3.4743352253373407,0.8673719157682901,0.9660445197254688,0,0,0,1
4.442453725337341,0.15747157576829013,0.3964671197254688,0,0,0,1
4.442453725337341,0.15747157576829013,0.3964671197254688,0,0,0,1
2.5457787253373407,-1.25310688423171,-1.3595506802745312,0,0,0,1
-0.7636885746626592,-0.6628610842317099,-0.24301157027453124,0,0,0,1
-0.7636885746626592,-0.6628610842317099,-0.24301157027453124,0,0,0,1
-3.6108784746626594,1.6204218157682901,0.21824868972546876,0,0,0,1
-3.6108784746626594,1.6204218157682901,0.21824868972546876,0,0,0,1
0.9241814753373409,0.7258662157682901,0.35800727972546875,0,0,0,1
0.9241814753373409,0.7258662157682901,0.35800727972546875,0,0,0,1
3.1647534253373406,-0.6462746842317099,0.015234915725468774,0,0,0,1
3.1647534253373406,-0.6462746842317099,0.015234915725468774,0,0,0,1
4.3571907253373405,-1.59305848423171,0.21744849972546876,0,0,0,1
3.429926425337341,-1.67542338423171,0.4880523397254688,0,0,0,1
1.217114925337341,-0.35027484423170985,0.6595762197254689,0,0,0,1
-0.7387184746626592,0.9760705157682902,0.9975665197254688,0,0,0,1
-0.7387184746626592,0.9760705157682902,0.9975665197254688,0,0,0,1
-0.7387184746626592,0.9760705157682902,0.9975665197254688,0,0,0,1
-1.207205274662659,1.10711391576829,-0.4472073002745312,0,0,0,1
-1.207205274662659,1.10711391576829,-0.4472073002745312,0,0,0,1
0.021469609337340895,-0.1813026942317099,-1.855969980274531,0,0,0,1
0.021469609337340895,-0.1813026942317099,-1.855969980274531,0,0,0,1
1.237185925337341,-1.24756938423171,-2.5711288802745313,0,0,0,1
2.271874925337341,-0.9246169842317099,-2.3787078802745314,0,0,0,1
0.13233997533734088,0.6582513657682901,0.0026776477254687745,0,0,0,1
-0.22683571466265912,-0.29759011423170983,0.6207610197254688,0,0,0,1
-0.22683571466265912,-0.29759011423170983,0.6207610197254688,0,0,0,1
-0.22683571466265912,-0.29759011423170983,0.6207610197254688,0,0,0,1
-0.9279465746626591,-0.05814978123170987,1.2742559197254688,0,0,0,1
-0.9279465746626591,-0.05814978123170987,1.2742559197254688,0,0,0,1
1.364381325337341,-0.6426830842317098,-0.06599435327453122,0,0,0,1
1.364381325337341,-0.6426830842317098,-0.06599435327453122,0,0,0,1
-0.43234489466265913,0.17848748576829013,-1.3576660802745313,0,0,0,1
-0.43234489466265913,0.17848748576829013,-1.3576660802745313,0,0,0,1
-0.5339884746626591,-0.6849548842317098,-1.467840480274531,0,0,0,1
-1.705999874662659,-0.48364488423170987,-1.403531780274531,0,0,0,1
-1.705999874662659,-0.48364488423170987,-1.403531780274531,0,0,0,1
1.120368525337341,0.3194469657682901,-0.08929512027453122,0,0,0,1
-0.020041926662659106,-0.6865470842317098,0.9969021197254688,0,0,0,1
-0.36788127466265913,-0.7597277842317098,1.3801503197254688,0,0,0,1
-0.36788127466265913,-0.7597277842317098,1.3801503197254688,0,0,0,1
-0.5071434746626591,0.31227489576829015,0.7441922197254688,0,0,0,1
-1.073512574662659,1.38266691576829,0.08342930472546876,0,0,0,1
-1.073512574662659,1.38266691576829,0.08342930472546876,0,0,0,1
1.015134325337341,0.11084104576829013,-1.3423352802745312,0,0,0,1
1.015134325337341,0.11084104576829013,-1.3423352802745312,0,0,0,1
1.184096825337341,-0.6073422842317099,-1.6547417802745312,0,0,0,1
0.054839625337340894,-0.5624980842317099,-1.4275510802745313,0,0,0,1
-0.3813052046626591,-0.27488378423170984,-0.4968711402745312,0,0,0,1
-0.3813052046626591,-0.27488378423170984,-0.4968711402745312,0,0,0,1
-0.9894614046626591,0.07850003576829014,1.4228239197254688,0,0,0,1
-0.9894614046626591,0.07850003576829014,1.4228239197254688,0,0,0,1
-0.34100197466265914,-0.24557819423170987,0.07123329972546877,0,0,0,1
-0.34100197466265914,-0.24557819423170987,0.07123329972546877,0,0,0,1
0.3158316753373409,0.2336526157682901,-1.1397434802745312,0,0,0,1
0.3158316753373409,0.2336526157682901,-1.1397434802745312,0,0,0,1
1.850351825337341,-0.061210044231709865,-1.3042881802745312,0,0,0,1
0.3194031853373409,-0.17208274423170988,-1.4907939802745311,0,0,0,1
-1.333334474662659,0.2281052057682901,-0.7859944402745311,0,0,0,1
-1.333334474662659,0.2281052057682901,-0.7859944402745311,0,0,0,1
-1.903186774662659,0.8563996157682902,-0.08696231027453123,0,0,0,1
-1.903186774662659,0.8563996157682902,-0.08696231027453123,0,0,0,1
-1.397685474662659,1.27696011576829,0.7047503897254688,0,0,0,1
-0.4500088546626591,1.06108251576829,1.017305319725469,0,0,0,1
-0.4500088546626591,1.06108251576829,1.017305319725469,0,0,0,1
3.004233825337341,-0.9930984842317099,-0.34769538027453123,0,0,0,1
0.8885102253373409,-0.5658298842317099,-0.44498078027453125,0,0,0,1
0.8885102253373409,-0.5658298842317099,-0.44498078027453125,0,0,0,1
-1.284947874662659,0.06904129576829013,0.03947212972546878,0,0,0,1
-1.726329274662659,0.23678009576829012,0.20817097972546877,0,0,0,1
0.36721182533734087,-0.1381863342317099,-0.27415201027453123,0,0,0,1
1.696116925337341,-0.5860060842317099,-0.40029881027453124,0,0,0,1
1.696116925337341,-0.5860060842317099,-0.40029881027453124,0,0,0,1
2.1490483253373407,-0.8098159842317099,-0.7599328802745312,0,0,0,1
2.1490483253373407,-0.8098159842317099,-0.7599328802745312,0,0,0,1
0.8385653653373409,-0.34942788423170984,-0.2597102202745312,0,0,0,1
-1.440307074662659,0.6714130157682902,0.10370870972546876,0,0,0,1
-0.8615488746626591,0.22720884576829012,-0.13597337027453124,0,0,0,1
-0.8615488746626591,0.22720884576829012,-0.13597337027453124,0,0,0,1
-0.8615488746626591,0.22720884576829012,-0.13597337027453124,0,0,0,1
2.030177725337341,1.36621761576829,0.07931896972546877,0,0,0,1
0.6348223853373409,1.90401751576829,-0.49197814027453124,0,0,0,1
-0.8596968746626591,-1.06754658423171,-1.281306080274531,0,0,0,1
-1.380230374662659,-1.2080621842317099,-1.2716600802745313,0,0,0,1
-0.7238249746626592,-0.27634773423170983,-0.6343314402745311,0,0,0,1
0.9803977253373409,0.4731715457682901,0.2585859597254688,0,0,0,1
0.9803977253373409,0.4731715457682901,0.2585859597254688,0,0,0,1
1.831285025337341,0.38688851576829014,0.8976566197254688,0,0,0,1
1.304714725337341,-0.33979378423170986,0.46613969972546876,0,0,0,1
0.7174344253373409,-0.9167578842317099,0.4682427897254688,0,0,0,1
0.7174344253373409,-0.9167578842317099,0.4682427897254688,0,0,0,1
0.7174344253373409,-0.9167578842317099,0.4682427897254688,0,0,0,1
-0.8359169746626591,1.56473431576829,-0.41348264027453124,0,0,0,1
-0.8359169746626591,1.56473431576829,-0.41348264027453124,0,0,0,1
2.164955725337341,-0.10664903423170986,-1.2361503802745313,0,0,0,1
1.707873825337341,-1.38789578423171,-1.4935323802745313,0,0,0,1
0.9356379653373409,-1.9977910842317101,-0.9678333102745311,0,0,0,1
0.9356379653373409,-1.9977910842317101,-0.9678333102745311,0,0,0,1
0.9356379653373409,-1.9977910842317101,-0.9678333102745311,0,0,0,1
-0.0589566066626591,-0.7174095342317098,0.22889747972546878,0,0,0,1
-0.0589566066626591,-0.7174095342317098,0.22889747972546878,0,0,0,1
-0.7796978746626592,1.26853511576829,0.8376437697254688,0,0,0,1
-0.7796978746626592,1.26853511576829,0.8376437697254688,0,0,0,1
-0.12274406466265911,1.82737931576829,1.7029736197254688,0,0,0,1
-0.12274406466265911,1.82737931576829,1.7029736197254688,0,0,0,1
0.9179568253373409,0.7436307157682901,1.3627461197254689,0,0,0,1
1.193950225337341,-0.20982183423170989,0.2945217797254688,0,0,0,1
1.417178625337341,-0.24939773423170988,-0.5041286102745312,0,0,0,1
1.463355525337341,0.12534976576829013,-0.8350427502745311,0,0,0,1
1.463355525337341,0.12534976576829013,-0.8350427502745311,0,0,0,1
-1.646534474662659,-0.5116487842317099,-0.9310622802745312,0,0,0,1
-1.646534474662659,-0.5116487842317099,-0.9310622802745312,0,0,0,1
-1.646534474662659,-0.5116487842317099,-0.9310622802745312,0,0,0,1
0.8514752253373409,-1.1661744842317099,-0.17522982027453124,0,0,0,1
1.495279825337341,0.1504216557682901,0.6001297197254688,0,0,0,1
1.495279825337341,0.1504216557682901,0.6001297197254688,0,0,0,1
1.691220725337341,0.7399719157682901,1.3237439197254688,0,0,0,1
0.7501464253373409,0.8985895157682902,0.7219499197254688,0,0,0,1
0.7501464253373409,0.8985895157682902,0.7219499197254688,0,0,0,1
0.7501464253373409,0.8985895157682902,0.7219499197254688,0,0,0,1
-0.7821907746626591,0.4681940157682901,-0.03737440827453122,0,0,0,1
-0.7821907746626591,0.4681940157682901,-0.03737440827453122,0,0,0,1
-1.311125274662659,-0.43272284423170987,-0.4423621002745312,0,0,0,1
0.1877598953373409,0.05631333976829013,-0.8575580402745312,0,0,0,1
0.1877598953373409,0.05631333976829013,-0.8575580402745312,0,0,0,1
1.413774025337341,1.17595571576829,-0.47509602027453124,0,0,0,1
1.413774025337341,1.17595571576829,-0.47509602027453124,0,0,0,1
0.7152018753373409,1.2175903157682901,-0.4211259202745312,0,0,0,1
-1.581634074662659,-2.0586568842317097,0.10007598972546877,0,0,0,1
-1.215604274662659,-1.77569608423171,0.36413254972546877,0,0,0,1
0.2845139653373409,0.06525534576829013,0.9577682197254688,0,0,0,1
1.843476825337341,1.03169981576829,1.087785219725469,0,0,0,1
1.843476825337341,1.03169981576829,1.087785219725469,0,0,0,1
1.022283125337341,0.07031584176829013,-0.16259721027453122,0,0,0,1
1.022283125337341,0.07031584176829013,-0.16259721027453122,0,0,0,1
-0.11390064466265912,-0.6546932842317098,-0.5908704102745311,0,0,0,1
-0.7520165246626591,-0.6563083342317099,-0.3815969502745312,0,0,0,1
-1.194995374662659,0.5921221157682901,-0.3764608202745312,0,0,0,1
1.376507325337341,1.55917691576829,-0.16357687027453122,0,0,0,1
1.376507325337341,1.55917691576829,-0.16357687027453122,0,0,0,1
2.104820725337341,0.40462963576829014,-0.11882046027453123,0,0,0,1
0.6269307253373408,-1.43903258423171,0.11010458972546877,0,0,0,1
0.6269307253373408,-1.43903258423171,0.11010458972546877,0,0,0,1
0.13321162533734088,-0.9899463442317099,-0.11896721027453123,0,0,0,1
0.13321162533734088,-0.9899463442317099,-0.11896721027453123,0,0,0,1
-0.2254252246626591,0.6684884157682901,0.5526864197254688,0,0,0,1
-0.2254252246626591,0.6684884157682901,0.5526864197254688,0,0,0,1
0.18722869533734088,-0.6349016242317098,0.035051909725468774,0,0,0,1
1.333451725337341,-1.18443018423171,-0.9481278802745312,0,0,0,1
1.519179825337341,0.31309263576829016,-0.5849305802745312,0,0,0,1
-0.9234862146626591,0.45919855576829016,0.03323062972546878,0,0,0,1
-0.9234862146626591,0.45919855576829016,0.03323062972546878,0,0,0,1
-0.7275080746626591,0.21488537576829012,-0.14080206027453124,0,0,0,1
-0.7275080746626591,0.21488537576829012,-0.14080206027453124,0,0,0,1
-0.7275080746626591,0.21488537576829012,-0.14080206027453124,0,0,0,1
0.2230487053373409,-0.2120456242317099,-0.2558880202745312,0,0,0,1
0.2230487053373409,-0.2120456242317099,-0.2558880202745312,0,0,0,1
0.2230487053373409,-0.2120456242317099,-0.2558880202745312,0,0,0,1
0.2230487053373409,-0.2120456242317099,-0.2558880202745312,0,0,0,1
0.08889819533734089,1.02731551576829,0.34876491972546875,0,0,0,1
0.08889819533734089,1.02731551576829,0.34876491972546875,0,0,0,1
0.08389236133734089,-0.46252964423170984,-0.2921815202745312,0,0,0,1
0.2458729953373409,-1.68236988423171,-0.2854981802745312,0,0,0,1
0.2458729953373409,-1.68236988423171,-0.2854981802745312,0,0,0,1
0.6506695953373409,0.7941623157682901,0.6238718197254688,0,0,0,1
1.188157525337341,0.4375437657682901,0.08387705572546877,0,0,0,1
0.8390040553373409,-0.33376908423170987,-0.19685832027453123,0,0,0,1
0.8390040553373409,-0.33376908423170987,-0.19685832027453123,0,0,0,1
-0.4970898446626591,-0.5488334842317099,-0.2566695502745312,0,0,0,1
1.237218425337341,-0.12945706423170988,-0.14969495027453122,0,0,0,1
1.237218425337341,-0.12945706423170988,-0.14969495027453122,0,0,0,1
1.237218425337341,-0.12945706423170988,-0.14969495027453122,0,0,0,1
1.237218425337341,-0.12945706423170988,-0.14969495027453122,0,0,0,1
1.639985625337341,0.9973769157682901,0.0003471057254687748,0,0,0,1
1.639985625337341,0.9973769157682901,0.0003471057254687748,0,0,0,1
0.38524867533734086,1.00925151576829,-0.005277188274531225,0,0,0,1
0.38524867533734086,1.00925151576829,-0.005277188274531225,0,0,0,1
0.2889008653373409,-1.33251188423171,-0.4119232002745312,0,0,0,1
0.4712815453373409,-0.17414609423170987,-0.23119143027453123,0,0,0,1
1.949007525337341,-0.22873346423170987,0.20428451972546877,0,0,0,1
1.304050025337341,-0.11733847423170987,-0.05879715227453122,0,0,0,1
0.3209805653373409,-0.02767603423170987,-0.06211784627453122,0,0,0,1
0.3209805653373409,-0.02767603423170987,-0.06211784627453122,0,0,0,1
0.4068236553373409,-0.6763848442317099,-0.3250363202745312,0,0,0,1
-0.36844107466265913,-1.07634638423171,-0.16101304027453123,0,0,0,1
-0.36844107466265913,-1.07634638423171,-0.16101304027453123,0,0,0,1
-1.927975174662659,-0.37192176423170986,-0.40912333027453124,0,0,0,1
-1.927975174662659,-0.37192176423170986,-0.40912333027453124,0,0,0,1
-1.272077074662659,0.32247741576829014,0.08957442472546877,0,0,0,1
2.531638725337341,0.4122912457682901,0.23930605972546878,0,0,0,1
1.544706825337341,0.6522296157682902,-0.5086714302745312,0,0,0,1
1.770907925337341,-0.7022472842317099,-0.5371201302745312,0,0,0,1
-2.4984869746626592,0.7189115457682902,-0.2693500802745312,0,0,0,1
-2.4984869746626592,0.7189115457682902,-0.2693500802745312,0,0,0,1
-2.4984869746626592,0.7189115457682902,-0.2693500802745312,0,0,0,1
0.6789183753373409,0.41544181576829015,0.3946779197254688,0,0,0,1
1.554441925337341,-0.6279531542317098,-0.21329335027453122,0,0,0,1
2.264005225337341,-1.33637258423171,-0.22551039027453124,0,0,0,1
2.264005225337341,-1.33637258423171,-0.22551039027453124,0,0,0,1
2.264005225337341,-1.33637258423171,-0.22551039027453124,0,0,0,1
1.399273425337341,-0.7589345342317099,0.5191407197254688,0,0,0,1
-1.141429374662659,0.18429118576829012,0.4300514197254688,0,0,0,1
-1.853208574662659,0.7802305157682902,0.4601214797254688,0,0,0,1
-0.2492813946626591,-0.2616554642317099,0.5689378697254688,0,0,0,1
0.6393513853373409,0.5250397157682901,-0.6618080402745312,0,0,0,1
1.199335625337341,0.8981441157682901,-0.21159223027453122,0,0,0,1
0.5408673253373409,0.9535337157682902,-0.15649536027453123,0,0,0,1
0.3476233653373409,0.5968587557682902,-0.6718547802745312,0,0,0,1
1.175097925337341,-0.6166543842317098,-0.43407718027453124,0,0,0,1
1.175097925337341,-0.6166543842317098,-0.43407718027453124,0,0,0,1
0.6001525253373409,-1.2915330842317099,-0.4554653502745312,0,0,0,1
-1.624448274662659,-0.2249729142317099,0.5481301197254689,0,0,0,1
-1.624448274662659,-0.2249729142317099,0.5481301197254689,0,0,0,1
1.721988225337341,0.3264141857682901,0.5900449197254688,0,0,0,1
1.732198225337341,0.1925846857682901,-0.16171971027453122,0,0,0,1
1.437076125337341,-0.6198037842317099,-0.8517344302745312,0,0,0,1
1.437076125337341,-0.6198037842317099,-0.8517344302745312,0,0,0,1
-1.463025574662659,-0.09640234423170987,-0.28950563027453124,0,0,0,1
-1.463025574662659,-0.09640234423170987,-0.28950563027453124,0,0,0,1
-2.2697953746626593,1.3787918157682901,-0.11487606027453123,0,0,0,1
1.581284025337341,-0.15688283423170987,-0.09132925027453123,0,0,0,1
2.255091225337341,-1.12979528423171,-0.017794163274531226,0,0,0,1
2.197186025337341,-1.73516308423171,-0.44704715027453124,0,0,0,1
0.0912060903373409,-0.17097830423170987,0.6325391197254688,0,0,0,1
-1.913334874662659,1.5189532157682901,0.9026250497254689,0,0,0,1
-1.634484774662659,1.74948541576829,0.4385006197254688,0,0,0,1
-1.634484774662659,1.74948541576829,0.4385006197254688,0,0,0,1
2.6008782253373406,-0.3666207342317099,-0.3085972402745312,0,0,0,1
2.6008782253373406,-0.3666207342317099,-0.3085972402745312,0,0,0,1
2.6008782253373406,-0.3666207342317099,-0.3085972402745312,0,0,0,1
2.0317960253373406,-0.5012516242317099,-0.8039082802745312,0,0,0,1
2.0317960253373406,-0.5012516242317099,-0.8039082802745312,0,0,0,1
0.7845139653373409,1.09683161576829,0.7511017597254688,0,0,0,1
0.7845139653373409,1.09683161576829,0.7511017597254688,0,0,0,1
-0.5279059246626591,1.86611011576829,0.8200286197254688,0,0,0,1
-0.13623188466265912,0.37124903576829016,0.5026554197254688,0,0,0,1
1.052614725337341,-1.58421958423171,-0.16220728027453124,0,0,0,1
0.8128276253373409,-0.9258795842317099,-0.4318933802745312,0,0,0,1
1.915902625337341,0.13354474576829012,-0.005606324974531226,0,0,0,1
2.807144725337341,0.8248880157682902,0.029703585725468776,0,0,0,1
2.807144725337341,0.8248880157682902,0.029703585725468776,0,0,0,1
1.204908825337341,1.08489561576829,-0.5226071202745312,0,0,0,1
0.9273953553373409,-0.33080906423170986,-0.47944298027453125,0,0,0,1
0.9273953553373409,-0.33080906423170986,-0.47944298027453125,0,0,0,1
-0.4200291446626591,-1.19169738423171,-0.7549025102745311,0,0,0,1
-0.4200291446626591,-1.19169738423171,-0.7549025102745311,0,0,0,1
2.7325425253373408,1.72991321576829,0.5107604597254688,0,0,0,1
2.519228425337341,1.39927921576829,-0.20959571027453122,0,0,0,1
2.519228425337341,1.39927921576829,-0.20959571027453122,0,0,0,1
1.780288225337341,-1.97506308423171,-1.304426780274531,0,0,0,1
1.780288225337341,-1.97506308423171,-1.304426780274531,0,0,0,1
-1.638354774662659,1.32582511576829,0.3480330397254688,0,0,0,1
-1.638354774662659,1.32582511576829,0.3480330397254688,0,0,0,1
-1.638354774662659,1.32582511576829,0.3480330397254688,0,0,0,1
-1.638354774662659,1.32582511576829,0.3480330397254688,0,0,0,1
-1.638354774662659,1.32582511576829,0.3480330397254688,0,0,0,1
2.0880570253373407,-0.4761405442317099,-0.34132591027453124,0,0,0,1
1.933545625337341,-0.5168118342317098,-0.8143869802745312,0,0,0,1
-0.7526869746626591,0.15432450576829013,-0.4360832302745312,0,0,0,1
-0.8623461746626591,1.51114941576829,-0.06652036427453123,0,0,0,1
-0.8623461746626591,1.51114941576829,-0.06652036427453123,0,0,0,1
1.533318025337341,0.8100464557682902,-0.17959622027453123,0,0,0,1
0.5382256653373408,-0.1390508242317099,0.18192472972546878,0,0,0,1
0.5382256653373408,-0.1390508242317099,0.18192472972546878,0,0,0,1
0.5382256653373408,-0.1390508242317099,0.18192472972546878,0,0,0,1
0.5382256653373408,-0.1390508242317099,0.18192472972546878,0,0,0,1
0.9281840253373409,-1.66902148423171,0.08461006972546876,0,0,0,1
-0.035280688662659106,-2.0920025842317096,-0.6872768802745312,0,0,0,1
-0.2201180346626591,0.40264226576829015,-0.4163561202745312,0,0,0,1
-0.2201180346626591,0.40264226576829015,-0.4163561202745312,0,0,0,1
-0.2201180346626591,0.40264226576829015,-0.4163561202745312,0,0,0,1
-0.6344580746626591,-0.06021167023170987,0.12093743972546878,0,0,0,1
-0.6344580746626591,-0.06021167023170987,0.12093743972546878,0,0,0,1
1.128742725337341,0.10864703576829013,-0.17004207027453122,0,0,0,1
1.128742725337341,0.10864703576829013,-0.17004207027453122,0,0,0,1
1.128742725337341,0.10864703576829013,-0.17004207027453122,0,0,0,1
3.066129225337341,1.4526616157682901,0.5240881197254689,0,0,0,1
1.719593525337341,3.7098577157682904,-0.018902929274531226,0,0,0,1
-1.101308274662659,3.1585524157682903,0.038058726725468776,0,0,0,1
0.4385113853373409,-2.92300458423171,-1.0774884802745313,0,0,0,1
0.4385113853373409,-2.92300458423171,-1.0774884802745313,0,0,0,1
0.7236600253373409,-4.08716438423171,-1.3649854802745311,0,0,0,1
0.7236600253373409,-4.08716438423171,-1.3649854802745311,0,0,0,1
1.731966525337341,-0.34564248423170985,1.4981003197254688,0,0,0,1
-0.7622675746626592,2.3104599157682904,1.2687970197254688,0,0,0,1
-0.7622675746626592,2.3104599157682904,1.2687970197254688,0,0,0,1
-0.7622675746626592,2.3104599157682904,1.2687970197254688,0,0,0,1
-1.848860674662659,0.8082303157682902,0.9342307197254688,0,0,0,1
0.29187347533734087,-1.19858038423171,0.5315313597254688,0,0,0,1
2.7301897253373406,-1.23503488423171,0.06829377972546877,0,0,0,1
2.7301897253373406,-1.23503488423171,0.06829377972546877,0,0,0,1
1.466746825337341,0.9580322157682901,-0.34346584027453125,0,0,0,1
-0.5173525746626592,-0.9467005842317099,-0.14816299027453123,0,0,0,1
-0.5173525746626592,-0.9467005842317099,-0.14816299027453123,0,0,0,1
-2.626150574662659,-2.7543649842317097,-0.2573755102745312,0,0,0,1
-2.705096274662659,-2.6029567842317096,-0.5542746802745312,0,0,0,1
-0.6867069746626591,-0.5168904842317098,0.6299882797254688,0,0,0,1
-0.6867069746626591,-0.5168904842317098,0.6299882797254688,0,0,0,1
0.6230435253373409,3.5048637157682903,1.2299666197254688,0,0,0,1
0.6230435253373409,3.5048637157682903,1.2299666197254688,0,0,0,1
1.612533125337341,4.74263091576829,1.181038119725469,0,0,0,1
3.4358687253373406,0.43074431576829014,-1.1528460802745313,0,0,0,1
2.1710381253373408,-2.70057008423171,-2.2198026802745314,0,0,0,1
2.1710381253373408,-2.70057008423171,-2.2198026802745314,0,0,0,1
0.3181977453373409,-3.17614008423171,-3.5810320802745315,0,0,0,1
-1.852714974662659,-1.08940958423171,-1.7878153802745311,0,0,0,1
-3.8192272746626594,2.4874949157682904,-0.3997500302745312,0,0,0,1
-3.8192272746626594,2.4874949157682904,-0.3997500302745312,0,0,0,1
-3.4620122746626594,4.39893821576829,1.6766033197254688,0,0,0,1
0.8392434253373409,-1.83990908423171,0.15146830972546876,0,0,0,1
5.967585125337341,-3.4148806842317097,-1.5904402802745312,0,0,0,1
5.967585125337341,-3.4148806842317097,-1.5904402802745312,0,0,0,1
4.884144325337341,-2.34703758423171,-1.1683131802745312,0,0,0,1
-0.17693565466265912,0.7683179557682901,-0.3128356102745312,0,0,0,1
-5.094918674662659,2.94955951576829,2.0783340197254687,0,0,0,1
-6.648778274662659,1.90312401576829,2.7829263197254686,0,0,0,1
-6.648778274662659,1.90312401576829,2.7829263197254686,0,0,0,1
-0.2264723646626591,-2.54585268423171,0.2893511197254688,0,0,0,1
-0.21878670466265912,-2.52657368423171,0.36130406972546875,0,0,0,1
7.468349025337341,-2.0993110842317098,-0.6310972302745311,0,0,0,1
6.757755725337341,0.8475777157682901,0.6149824197254689,0,0,0,1
1.968493025337341,3.91780641576829,-1.1905777802745312,0,0,0,1
-5.091141674662659,0.8200233757682901,-0.6728046302745312,0,0,0,1
-5.091141674662659,0.8200233757682901,-0.6728046302745312,0,0,0,1
-5.091141674662659,0.8200233757682901,-0.6728046302745312,0,0,0,1
-3.283378074662659,-0.46390644423170985,-0.024808915274531225,0,0,0,1
1.474499225337341,1.32439531576829,0.30857607972546874,0,0,0,1
5.634135725337341,1.13374731576829,1.3187532197254688,0,0,0,1
5.634135725337341,1.13374731576829,1.3187532197254688,0,0,0,1
2.428391925337341,-0.8724425842317098,-1.291460880274531,0,0,0,1
-0.7647137746626591,-4.11337508423171,-2.1564292802745313,0,0,0,1
-0.7647137746626591,-4.11337508423171,-2.1564292802745313,0,0,0,1
-0.7647137746626591,-4.11337508423171,-2.1564292802745313,0,0,0,1
-4.859779274662659,2.7649164157682904,0.7950496197254688,0,0,0,1
-0.2664408546626591,3.9359722157682904,3.1078197197254687,0,0,0,1
3.181749725337341,1.3199248157682901,1.3194295197254688,0,0,0,1
3.181749725337341,1.3199248157682901,1.3194295197254688,0,0,0,1
3.181749725337341,1.3199248157682901,1.3194295197254688,0,0,0,1
2.7319407253373407,-1.83365138423171,0.10184403972546877,0,0,0,1
2.955629725337341,-4.07339508423171,-1.1628741802745313,0,0,0,1
2.955629725337341,-4.07339508423171,-1.1628741802745313,0,0,0,1
0.4737048253373409,-2.8116073842317095,-0.8644805302745312,0,0,0,1
-3.163847474662659,0.9556774657682902,-0.7797733802745311,0,0,0,1
-2.6406960746626593,2.14022591576829,-0.19020108027453123,0,0,0,1
1.805474725337341,0.24506421576829013,-0.08087578527453122,0,0,0,1
1.269065425337341,0.38315401576829017,0.17727961972546877,0,0,0,1
2.0687517253373406,0.9279176157682901,0.36157759972546877,0,0,0,1
2.0594964253373407,0.9253933657682901,0.6435234197254688,0,0,0,1
2.0594964253373407,0.9253933657682901,0.6435234197254688,0,0,0,1
0.3545079253373409,0.7999070157682902,0.22154077972546876,0,0,0,1
2.0594964253373407,0.9253933657682901,0.6435234197254688,0,0,0,1
0.3545079253373409,0.7999070157682902,0.22154077972546876,0,0,0,1
0.48045016533734086,-0.7054572542317099,-0.9107640102745311,0,0,0,1
0.48045016533734086,-0.7054572542317099,-0.9107640102745311,0,0,0,1
-1.535836674662659,-0.11609519423170987,-0.14342883027453124,0,0,0,1
1.351309325337341,1.11217241576829,0.4895323197254688,0,0,0,1
2.1659999253373408,0.9346202757682901,0.22115262972546876,0,0,0,1
2.1659999253373408,0.9346202757682901,0.22115262972546876,0,0,0,1
3.0579543253373407,-0.5012103842317098,-0.28187814027453123,0,0,0,1
3.0579543253373407,-0.5012103842317098,-0.28187814027453123,0,0,0,1
3.0579543253373407,-0.5012103842317098,-0.28187814027453123,0,0,0,1
-2.4199790746626593,0.5306055157682902,0.12557389972546876,0,0,0,1
1.012767325337341,0.2225598457682901,-0.029297502274531227,0,0,0,1
1.012767325337341,0.2225598457682901,-0.029297502274531227,0,0,0,1
0.1942792053373409,0.029880087768290126,-0.8730209202745312,0,0,0,1
0.1942792053373409,0.029880087768290126,-0.8730209202745312,0,0,0,1
0.1942792053373409,0.029880087768290126,-0.8730209202745312,0,0,0,1
-2.207260574662659,0.022883939768290132,-0.40543094027453125,0,0,0,1
-2.207260574662659,0.022883939768290132,-0.40543094027453125,0,0,0,1
-2.207260574662659,0.022883939768290132,-0.40543094027453125,0,0,0,1
-2.207260574662659,0.022883939768290132,-0.40543094027453125,0,0,0,1
3.095783725337341,-0.08031777423170987,-0.07880357027453123,0,0,0,1
2.853950025337341,-1.71152058423171,-0.8747148802745311,0,0,0,1
1.292155725337341,-1.9541458842317099,-0.5794944802745312,0,0,0,1
-0.5979666746626591,-0.2825401242317099,-0.26748315027453123,0,0,0,1
-0.5979666746626591,-0.2825401242317099,-0.26748315027453123,0,0,0,1
-1.554469574662659,1.28294781576829,0.7853155197254689,0,0,0,1
-0.3786644746626591,2.0738487157682903,0.4175923197254688,0,0,0,1
1.907024925337341,1.71175391576829,-0.6187795802745312,0,0,0,1
1.907024925337341,1.71175391576829,-0.6187795802745312,0,0,0,1
2.683657225337341,0.006309825768290128,-0.8749293402745312,0,0,0,1
1.107850525337341,-1.69895888423171,-1.2998481802745312,0,0,0,1
1.107850525337341,-1.69895888423171,-1.2998481802745312,0,0,0,1
-1.653180574662659,1.60981381576829,1.586346119725469,0,0,0,1
0.6205678253373409,2.2559426157682902,0.8728629597254688,0,0,0,1
0.6205678253373409,2.2559426157682902,0.8728629597254688,0,0,0,1
0.6205678253373409,2.2559426157682902,0.8728629597254688,0,0,0,1
3.333500425337341,-0.40231014423170985,-0.8227918502745312,0,0,0,1
0.07920028533734089,-1.5871941842317099,-1.308663380274531,0,0,0,1
-2.3374342746626593,0.07837231076829013,-1.1096605802745312,0,0,0,1
-1.400712474662659,2.39526651576829,0.7768851197254688,0,0,0,1
-1.400712474662659,2.39526651576829,0.7768851197254688,0,0,0,1
0.5278010253373409,0.9970928657682901,0.9023760797254688,0,0,0,1
2.577326325337341,-1.41801188423171,0.30338897972546874,0,0,0,1
2.577326325337341,-1.41801188423171,0.30338897972546874,0,0,0,1
2.577326325337341,-1.41801188423171,0.30338897972546874,0,0,0,1
3.694265825337341,-2.2368955842317098,-0.32938925027453125,0,0,0,1
-0.3448052246626591,1.27285021576829,0.19446744972546878,0,0,0,1
-2.2711119746626593,2.45875261576829,0.8301998197254689,0,0,0,1
-2.2711119746626593,2.45875261576829,0.8301998197254689,0,0,0,1
-2.293055074662659,0.6801367157682902,-0.0028542592745312255,0,0,0,1
-0.22254799466265912,-0.39304782423170986,-0.33967796027453123,0,0,0,1
2.825741325337341,-0.9502739842317098,-0.4357676802745312,0,0,0,1
2.825741325337341,-0.9502739842317098,-0.4357676802745312,0,0,0,1
2.376792425337341,0.9395057757682902,-0.24700096027453122,0,0,0,1
-0.3046450446626591,1.05630141576829,0.22389336972546878,0,0,0,1
-0.3046450446626591,1.05630141576829,0.22389336972546878,0,0,0,1
-3.1578864746626594,0.9380105157682902,0.5610947197254689,0,0,0,1
-3.707817574662659,0.8117012157682901,0.6036777797254689,0,0,0,1
3.061893925337341,1.3097305157682901,0.03836676372546878,0,0,0,1
3.061893925337341,1.3097305157682901,0.03836676372546878,0,0,0,1
3.810465325337341,1.1233326157682901,-0.5788305102745311,0,0,0,1
2.0333142253373406,-0.7228733842317099,-1.2572289802745311,0,0,0,1
0.5013375253373409,-2.76852508423171,-0.25470606027453124,0,0,0,1
-3.8624887746626593,0.05210039376829013,0.7910667197254688,0,0,0,1
-3.8624887746626593,0.05210039376829013,0.7910667197254688,0,0,0,1
-3.8624887746626593,0.05210039376829013,0.7910667197254688,0,0,0,1
-2.940524074662659,2.66923591576829,2.0417435197254687,0,0,0,1
1.611872225337341,2.7940862157682904,1.6138457197254688,0,0,0,1
1.611872225337341,2.7940862157682904,1.6138457197254688,0,0,0,1
4.91918422533734,1.37746691576829,0.5349730497254688,0,0,0,1
4.91918422533734,1.37746691576829,0.5349730497254688,0,0,0,1
2.8953118253373407,-1.27901148423171,-2.5258543802745312,0,0,0,1
2.8953118253373407,-1.27901148423171,-2.5258543802745312,0,0,0,1
2.8953118253373407,-1.27901148423171,-2.5258543802745312,0,0,0,1
1.259419925337341,-2.2254461842317097,-3.0308392802745314,0,0,0,1
1.259419925337341,-2.2254461842317097,-3.0308392802745314,0,0,0,1
-5.32757127466266,2.3148365157682904,0.19398989972546876,0,0,0,1
-5.32757127466266,2.3148365157682904,0.19398989972546876,0,0,0,1
4.1354347253373405,-1.76516508423171,0.3343032197254688,0,0,0,1
4.1354347253373405,-1.76516508423171,0.3343032197254688,0,0,0,1
3.354123725337341,-1.81622828423171,-0.35970668027453123,0,0,0,1
3.354123725337341,-1.81622828423171,-0.35970668027453123,0,0,0,1
1.193577325337341,-2.62969808423171,-1.082330180274531,0,0,0,1
-1.352405074662659,-4.07114738423171,-0.13517365027453124,0,0,0,1
-4.51232027466266,1.08726531576829,2.5747393197254684,0,0,0,1
-4.51232027466266,1.08726531576829,2.5747393197254684,0,0,0,1
-0.12381218466265911,3.63338491576829,3.2223095197254685,0,0,0,1
-0.12381218466265911,3.63338491576829,3.2223095197254685,0,0,0,1
1.898628725337341,-2.0653720842317096,-9.11495268027453,0,0,0,1
-2.115067474662659,-6.56915858423171,-11.498845680274531,0,0,0,1
-2.115067474662659,-6.56915858423171,-11.498845680274531,0,0,0,1
-5.34472697466266,-2.7800082842317098,2.7861101197254685,0,0,0,1
-5.34472697466266,-2.7800082842317098,2.7861101197254685,0,0,0,1
-5.34472697466266,-2.7800082842317098,2.7861101197254685,0,0,0,1
-3.162987274662659,4.362349515768289,11.721314319725469,0,0,0,1
4.863769025337341,1.8070003157682901,6.300466719725469,0,0,0,1
4.863769025337341,1.8070003157682901,6.300466719725469,0,0,0,1
6.136211725337341,-3.8113834842317096,-2.8301426802745313,0,0,0,1
6.136211725337341,-3.8113834842317096,-2.8301426802745313,0,0,0,1
6.136211725337341,-3.8113834842317096,-2.8301426802745313,0,0,0,1
-2.630130774662659,2.3044693157682903,-1.1638498802745312,0,0,0,1
-6.131498774662659,5.43856291576829,0.021819559725468774,0,0,0,1
-3.394842174662659,4.12469791576829,2.2634117197254686,0,0,0,1
-3.394842174662659,4.12469791576829,2.2634117197254686,0,0,0,1
-3.394842174662659,4.12469791576829,2.2634117197254686,0,0,0,1
2.1195903253373407,-2.80455828423171,1.8016881197254688,0,0,0,1
3.291409025337341,-2.7070302842317098,2.3261966197254687,0,0,0,1
3.291409025337341,-2.7070302842317098,2.3261966197254687,0,0,0,1
5.371466225337341,-1.61957528423171,1.603140519725469,0,0,0,1
5.371466225337341,-1.61957528423171,1.603140519725469,0,0,0,1
5.618819725337341,-0.08848559423170987,0.31277581972546875,0,0,0,1
-0.8981671146626591,1.61245321576829,-2.9201276802745313,0,0,0,1
-3.333716274662659,-0.20922824423170988,-4.515842280274532,0,0,0,1
-3.3843445746626593,-0.5823586842317099,-2.5000569802745316,0,0,0,1
-2.942026574662659,0.29677804576829014,0.10696330472546876,0,0,0,1
-2.942026574662659,0.29677804576829014,0.10696330472546876,0,0,0,1
4.44293372533734,0.08992801976829012,2.3743373197254685,0,0,0,1
5.960619425337341,-1.10774778423171,2.4849441197254687,0,0,0,1
3.9598489253373406,-1.9404303842317099,1.0062841197254688,0,0,0,1
2.3441253253373406,-2.50267978423171,-0.8231266802745312,0,0,0,1
-1.536345974662659,0.18020333576829012,-1.6238089802745312,0,0,0,1
-4.147884274662659,1.73567151576829,-2.1518285802745316,0,0,0,1
-2.2793817746626592,0.6320841157682902,-1.3410669802745312,0,0,0,1
2.442588325337341,-0.31790984423170987,-0.45495215027453123,0,0,0,1
2.921178325337341,-0.2233812642317099,1.007212919725469,0,0,0,1
3.974683325337341,-0.5698650842317099,0.9888876197254688,0,0,0,1
3.5355344253373406,-0.9403979842317098,0.4200964197254688,0,0,0,1
0.6882777253373409,-1.11883988423171,-0.22032157027453123,0,0,0,1
0.6882777253373409,-1.11883988423171,-0.22032157027453123,0,0,0,1
-2.3449954746626593,0.5537020157682901,0.6121703197254689,0,0,0,1
-2.3449954746626593,0.5537020157682901,0.6121703197254689,0,0,0,1
1.699836225337341,0.1297295857682901,-0.7442409102745312,0,0,0,1
3.457992125337341,-0.7101772242317098,-1.3058184802745312,0,0,0,1
1.699460525337341,-0.6018881842317099,-1.3820991802745313,0,0,0,1
1.699460525337341,-0.6018881842317099,-1.3820991802745313,0,0,0,1
1.699460525337341,-0.6018881842317099,-1.3820991802745313,0,0,0,1
1.699460525337341,-0.6018881842317099,-1.3820991802745313,0,0,0,1
-3.5089402746626592,0.8775578157682902,0.9128232897254688,0,0,0,1
-3.5089402746626592,0.8775578157682902,0.9128232897254688,0,0,0,1
-3.5089402746626592,0.8775578157682902,0.9128232897254688,0,0,0,1
-4.099955274662659,1.2545908157682901,1.0090554197254689,0,0,0,1
-0.46067187466265913,-0.02132111423170987,1.1965823197254688,0,0,0,1
3.1944767253373407,-1.53909038423171,-0.21818224027453123,0,0,0,1
3.1944767253373407,-1.53909038423171,-0.21818224027453123,0,0,0,1
3.192997425337341,-1.03946788423171,-0.6066893802745311,0,0,0,1
2.9279199253373407,-0.36350463423170987,-1.0067239102745311,0,0,0,1
2.218660825337341,-0.34552152423170984,-0.9479129802745312,0,0,0,1
-0.1639818946626591,-0.6516213242317098,-0.9556961402745312,0,0,0,1
-2.3071589746626593,-0.6585780242317099,-1.0554829802745311,0,0,0,1
-2.022886274662659,1.32682981576829,-0.7081699802745312,0,0,0,1
0.5542998253373409,1.64664721576829,-0.13022915027453122,0,0,0,1
2.0871339253373407,0.13495023576829013,0.43921145972546877,0,0,0,1
2.0871339253373407,0.13495023576829013,0.43921145972546877,0,0,0,1
1.474918825337341,-1.04318908423171,-0.10697690027453123,0,0,0,1
1.474918825337341,-1.04318908423171,-0.10697690027453123,0,0,0,1
1.919792725337341,-2.2854256842317096,0.5793027197254689,0,0,0,1
1.919792725337341,-2.2854256842317096,0.5793027197254689,0,0,0,1
-0.6051621246626591,0.08122741576829014,0.6852004197254689,0,0,0,1
0.7000060253373409,0.2218724357682901,0.3988928497254688,0,0,0,1
0.7000060253373409,0.2218724357682901,0.3988928497254688,0,0,0,1
1.692007525337341,-0.34814922423170985,-1.0063890802745312,0,0,0,1
2.0675577253373407,-0.5895772442317099,-0.9899534302745312,0,0,0,1
2.632599325337341,-0.5088678842317098,-1.8922985802745311,0,0,0,1
2.204722925337341,-0.18205878423170987,-1.6670559802745313,0,0,0,1
-1.850713674662659,0.6067520557682902,0.7527150797254688,0,0,0,1
0.39712002533734087,-0.7137623842317099,0.9903781697254688,0,0,0,1
0.39712002533734087,-0.7137623842317099,0.9903781697254688,0,0,0,1
0.39712002533734087,-0.7137623842317099,0.9903781697254688,0,0,0,1
3.0499635253373407,-0.31788004423170985,0.34950777972546876,0,0,0,1
2.295881725337341,0.24279307576829012,-0.4025872102745312,0,0,0,1
0.7791991253373409,-0.7215265842317099,-0.9884722802745312,0,0,0,1
-1.200046074662659,-1.30776758423171,-1.3255367802745313,0,0,0,1
-2.720567674662659,-0.48732273423170985,-0.7542777402745312,0,0,0,1
-2.720567674662659,-0.48732273423170985,-0.7542777402745312,0,0,0,1
-1.969503874662659,0.6815784757682901,-0.058849127274531225,0,0,0,1
-1.969503874662659,0.6815784757682901,-0.058849127274531225,0,0,0,1
3.863562125337341,0.37656731576829017,0.18012150972546878,0,0,0,1
1.835418225337341,0.22129668576829012,-0.6573311402745312,0,0,0,1
1.835418225337341,0.22129668576829012,-0.6573311402745312,0,0,0,1
-1.082763174662659,-1.23037838423171,-0.14347044027453124,0,0,0,1
-2.964061674662659,-0.30704535423170987,0.14121171972546878,0,0,0,1
-2.964061674662659,-0.30704535423170987,0.14121171972546878,0,0,0,1
-2.6996516746626593,0.19162810576829012,0.4533123697254688,0,0,0,1
0.6872430253373409,0.020964372768290128,0.29567208972546877,0,0,0,1
0.6872430253373409,0.020964372768290128,0.29567208972546877,0,0,0,1
3.3913121253373406,-0.4520237542317099,0.06535180972546877,0,0,0,1
3.3913121253373406,-0.4520237542317099,0.06535180972546877,0,0,0,1
1.408999025337341,-0.49170691423170987,-0.17786303027453124,0,0,0,1
1.093293725337341,-0.8106866842317099,-0.08902863027453123,0,0,0,1
1.093293725337341,-0.8106866842317099,-0.08902863027453123,0,0,0,1
-0.9938168346626591,1.96134561576829,-0.4436469402745312,0,0,0,1
-0.9938168346626591,1.96134561576829,-0.4436469402745312,0,0,0,1
2.061562125337341,0.05754784076829013,-0.2819441802745312,0,0,0,1
2.467402925337341,-0.9824431342317098,-0.5606285802745312,0,0,0,1
0.6718611853373408,-0.44543446423170985,-0.7733476502745312,0,0,0,1
0.22673560533734088,-0.09847478423170987,-0.2571680802745312,0,0,0,1
0.22673560533734088,-0.09847478423170987,-0.2571680802745312,0,0,0,1
-1.522100874662659,0.5053491757682902,0.6454939197254689,0,0,0,1
-1.522100874662659,0.5053491757682902,0.6454939197254689,0,0,0,1
-1.522100874662659,0.5053491757682902,0.6454939197254689,0,0,0,1
1.431243425337341,0.7268724657682901,0.40010573972546876,0,0,0,1
1.431243425337341,0.7268724657682901,0.40010573972546876,0,0,0,1
1.431243425337341,0.7268724657682901,0.40010573972546876,0,0,0,1
1.698078625337341,-1.11519938423171,-0.48635033027453123,0,0,0,1
0.09260989533734089,-1.20274248423171,-0.9129988302745312,0,0,0,1
-3.3636340746626594,1.76445721576829,-0.4311727602745312,0,0,0,1
-3.3636340746626594,1.76445721576829,-0.4311727602745312,0,0,0,1
1.079617025337341,0.15114879576829013,0.8995469197254689,0,0,0,1
1.079617025337341,0.15114879576829013,0.8995469197254689,0,0,0,1
3.272085725337341,-0.34680185423170984,-0.19042328027453123,0,0,0,1
3.272085725337341,-0.34680185423170984,-0.19042328027453123,0,0,0,1
3.272085725337341,-0.34680185423170984,-0.19042328027453123,0,0,0,1
3.264420025337341,-0.42357068423170985,-0.34082011027453124,0,0,0,1
3.009179725337341,-0.6746292542317098,-0.5286171802745312,0,0,0,1
1.884319825337341,-0.8562606342317098,-0.5466876302745312,0,0,0,1
1.884319825337341,-0.8562606342317098,-0.5466876302745312,0,0,0,1
-3.804340274662659,1.49886191576829,0.5314987197254688,0,0,0,1
-3.804340274662659,1.49886191576829,0.5314987197254688,0,0,0,1
-3.212486774662659,0.24650769576829012,0.47426111972546875,0,0,0,1
-0.5861954746626591,-1.18724738423171,0.5308516197254688,0,0,0,1
0.2630305453373409,-1.60025208423171,-0.8640200202745312,0,0,0,1
4.222529725337341,-0.44195006423170985,0.6709095197254689,0,0,0,1
3.536773225337341,0.9068856157682902,0.7748918197254688,0,0,0,1
0.1280465253373409,1.97385791576829,0.6437654197254689,0,0,0,1
0.1280465253373409,1.97385791576829,0.6437654197254689,0,0,0,1
-1.422354174662659,0.9350371557682902,0.17352279972546877,0,0,0,1
-0.9441265746626591,-1.2684062842317099,0.07745441972546876,0,0,0,1
-0.9441265746626591,-1.2684062842317099,0.07745441972546876,0,0,0,1
-1.232559674662659,-0.5714537842317099,-0.7384914502745312,0,0,0,1
-1.232559674662659,-0.5714537842317099,-0.7384914502745312,0,0,0,1
2.9914803253373408,0.5250975657682901,0.44226028972546877,0,0,0,1
2.2705177253373408,0.14743796576829013,-0.27453545027453125,0,0,0,1
2.2705177253373408,0.14743796576829013,-0.27453545027453125,0,0,0,1
1.199468125337341,-0.8739486842317099,-0.4367647502745312,0,0,0,1
-3.2588462746626594,-0.6318387842317098,-0.32923498027453124,0,0,0,1
-3.2588462746626594,-0.6318387842317098,-0.32923498027453124,0,0,0,1
-0.8320450746626591,-0.5025360842317098,0.5488776197254688,0,0,0,1
1.652521625337341,0.32662137576829015,1.2406213197254687,0,0,0,1
1.652521625337341,0.32662137576829015,1.2406213197254687,0,0,0,1
1.652521625337341,0.32662137576829015,1.2406213197254687,0,0,0,1
3.112493025337341,0.4651796657682901,0.2768406597254688,0,0,0,1
3.8109441253373406,0.30817651576829014,-0.48288646027453125,0,0,0,1
-1.838241074662659,-0.09013484423170987,-1.1662428802745313,0,0,0,1
-2.4330057746626594,0.24656880576829013,-0.6509750202745311,0,0,0,1
-1.272082774662659,-0.1487688242317099,0.2719540197254688,0,0,0,1
-1.272082774662659,-0.1487688242317099,0.2719540197254688,0,0,0,1
0.49415160533734087,-0.29852913423170985,-0.011200697774531225,0,0,0,1
0.49415160533734087,-0.29852913423170985,-0.011200697774531225,0,0,0,1
2.2207037253373407,-0.45186678423170984,0.6822153197254688,0,0,0,1
2.2207037253373407,-0.45186678423170984,0.6822153197254688,0,0,0,1
2.606908325337341,-1.00607438423171,0.29583116972546875,0,0,0,1
0.1908831753373409,1.17921781576829,0.4686005397254688,0,0,0,1
-1.016067974662659,2.2360201157682904,-0.3816565602745312,0,0,0,1
-1.016067974662659,2.2360201157682904,-0.3816565602745312,0,0,0,1
-1.864369374662659,1.4303095157682901,-1.036815080274531,0,0,0,1
-0.9727730746626592,0.20832059576829012,-1.6322885802745313,0,0,0,1
-0.9727730746626592,0.20832059576829012,-1.6322885802745313,0,0,0,1
0.6387791753373409,-0.7488416242317099,-1.3207242802745311,0,0,0,1
0.6387791753373409,-0.7488416242317099,-1.3207242802745311,0,0,0,1
1.418929625337341,0.029667619768290125,-0.8804724802745312,0,0,0,1
2.590817925337341,0.8057227157682901,0.2608936697254688,0,0,0,1
2.590817925337341,0.8057227157682901,0.2608936697254688,0,0,0,1
-2.009822274662659,0.6052697157682901,0.7798146897254689,0,0,0,1
-0.6164154746626591,-1.91559648423171,0.9886567197254689,0,0,0,1
0.6177287253373409,1.29865741576829,0.032785741725468776,0,0,0,1
2.0289693253373406,1.09608751576829,-0.16583482027453122,0,0,0,1
2.0289693253373406,1.09608751576829,-0.16583482027453122,0,0,0,1
-0.5272974746626591,-0.6078271842317099,-0.6618244802745312,0,0,0,1
-1.958074574662659,0.0015295927282901285,-0.5011065302745312,0,0,0,1
-0.5861964046626591,0.6536082157682901,0.6118020697254688,0,0,0,1
-0.5861964046626591,0.6536082157682901,0.6118020697254688,0,0,0,1
1.239200125337341,1.50142851576829,0.8425753197254688,0,0,0,1
1.239200125337341,1.50142851576829,0.8425753197254688,0,0,0,1
2.048046625337341,1.37617721576829,0.7101315497254689,0,0,0,1
2.4144521253373408,0.45950867576829013,0.14552839972546877,0,0,0,1
1.816389625337341,0.03862102576829013,0.16904601972546876,0,0,0,1
-0.5815996746626592,-0.33129335423170986,-0.19196180027453122,0,0,0,1
-2.033029974662659,-0.7391327442317098,0.007384745725468774,0,0,0,1
-1.076005474662659,-0.6067957842317099,0.3857527697254688,0,0,0,1
1.239755125337341,0.7623328157682902,0.5507720197254689,0,0,0,1
2.706796225337341,1.72664891576829,0.09218772972546876,0,0,0,1
1.547668025337341,0.16049823576829012,-0.2918402302745312,0,0,0,1
0.5811076253373408,-1.43105088423171,-0.26844695027453125,0,0,0,1
-0.3945669946626591,-1.7878175842317099,-0.31507316027453125,0,0,0,1
-0.3945669946626591,-1.7878175842317099,-0.31507316027453125,0,0,0,1
-1.046720974662659,-0.5582421842317099,-0.26867202027453124,0,0,0,1
0.09718562533734089,1.27592771576829,0.015637604725468775,0,0,0,1
1.776722425337341,1.8060138157682901,-0.007124216874531225,0,0,0,1
-0.8138441746626591,-0.41591722423170985,-0.3930378302745312,0,0,0,1
-0.7077994146626592,-0.9545190142317098,-0.19393459027453122,0,0,0,1
1.8266616253373409,0.45002771576829015,-0.48138943027453124,0,0,0,1
1.8266616253373409,0.45002771576829015,-0.48138943027453124,0,0,0,1
0.8777461253373409,0.8630298557682902,-0.40063957027453123,0,0,0,1
-2.4433936746626594,-0.6793659142317099,-0.30112472027453124,0,0,0,1
-2.4433936746626594,-0.6793659142317099,-0.30112472027453124,0,0,0,1
-1.842656574662659,-0.8888764242317099,-0.21087983027453122,0,0,0,1
3.410155725337341,0.37190868576829017,0.9351951797254688,0,0,0,1
3.1403699253373407,2.08281921576829,0.4067043897254688,0,0,0,1
3.1403699253373407,2.08281921576829,0.4067043897254688,0,0,0,1
3.1403699253373407,2.08281921576829,0.4067043897254688,0,0,0,1
0.08781005533734089,-0.11498430023170987,-0.5199761802745312,0,0,0,1
-2.198943074662659,-1.59743558423171,-0.5497855302745311,0,0,0,1
-4.293121274662659,-0.7044202842317099,-0.38826230027453124,0,0,0,1
-2.845354574662659,0.007938895068290128,0.48231466972546877,0,0,0,1
1.015109525337341,0.03235172776829013,0.5679383597254688,0,0,0,1
1.015109525337341,0.03235172776829013,0.5679383597254688,0,0,0,1
3.134878725337341,-0.009485122231709872,-0.07519761027453123,0,0,0,1
3.281427925337341,-0.02418906623170987,-0.4236230002745312,0,0,0,1
0.8998122253373408,-0.20384393423170988,-0.44981364027453125,0,0,0,1
-1.970610574662659,0.13905386576829012,-0.3700557102745312,0,0,0,1
-4.001315574662659,0.28955246576829013,-0.09736791427453123,0,0,0,1
-2.764215474662659,-0.29220871423170985,-0.016034753274531226,0,0,0,1
0.2008624253373409,0.18407373576829011,0.4071767597254688,0,0,0,1
0.2008624253373409,0.18407373576829011,0.4071767597254688,0,0,0,1
2.2079711253373406,1.02062711576829,-0.21096280027453124,0,0,0,1
3.1909470253373406,0.5487204157682901,0.4923918197254688,0,0,0,1
2.564750225337341,0.07681018576829013,0.07617005572546877,0,0,0,1
0.2054476853373409,-0.26692848423170984,0.4281054997254688,0,0,0,1
-2.0488056746626593,-0.05640908723170987,0.3585894997254688,0,0,0,1
-2.1810016746626593,-0.2456714342317099,0.07523485972546877,0,0,0,1
-2.1810016746626593,-0.2456714342317099,0.07523485972546877,0,0,0,1
-2.1810016746626593,-0.2456714342317099,0.07523485972546877,0,0,0,1
-0.6164660246626591,-0.6402511842317099,-0.19569150027453122,0,0,0,1
0.6986251253373409,-0.9075703442317099,-0.47452966027453125,0,0,0,1
1.214386525337341,-0.7177382842317098,-0.40243928027453124,0,0,0,1
1.323386725337341,-0.04531456223170987,-0.10484400527453124,0,0,0,1
1.323386725337341,-0.04531456223170987,-0.10484400527453124,0,0,0,1
-0.054790004662659104,0.7591503157682902,0.3301916397254688,0,0,0,1
-0.8389839746626591,-0.028566267231709873,0.5309235197254688,0,0,0,1
-0.8041138746626592,-0.7108593842317098,0.11675235472546877,0,0,0,1
-0.8041138746626592,-0.7108593842317098,0.11675235472546877,0,0,0,1
0.5585169953373409,-0.6814760842317099,0.15270444972546876,0,0,0,1
1.933081125337341,0.3485342457682901,-0.13520351027453123,0,0,0,1
2.000231325337341,1.54265131576829,0.06627484972546877,0,0,0,1
2.000231325337341,1.54265131576829,0.06627484972546877,0,0,0,1
0.7061734253373408,1.54780451576829,-0.25906138027453124,0,0,0,1
-0.8682360746626591,-1.54292018423171,-1.1338651802745312,0,0,0,1
0.4896817253373409,0.5290381157682902,-0.3979198102745312,0,0,0,1
0.4896817253373409,0.5290381157682902,-0.3979198102745312,0,0,0,1
0.3014540853373409,1.15601931576829,0.17798801972546877,0,0,0,1
0.48125220533734087,-1.45051128423171,0.5830646197254689,0,0,0,1
1.045685325337341,-0.32057176423170985,0.26592233972546875,0,0,0,1
1.045685325337341,-0.32057176423170985,0.26592233972546875,0,0,0,1
-0.16440151466265912,0.3742380357682901,0.23531433972546878,0,0,0,1
0.03613139833734089,-0.05222390423170987,-0.019216807274531227,0,0,0,1
0.03613139833734089,-0.05222390423170987,-0.019216807274531227,0,0,0,1
0.03613139833734089,-0.05222390423170987,-0.019216807274531227,0,0,0,1
0.03613139833734089,-0.05222390423170987,-0.019216807274531227,0,0,0,1
0.03613139833734089,-0.05222390423170987,-0.019216807274531227,0,0,0,1
0.3291840753373409,-0.45017780423170983,0.30791141972546876,0,0,0,1
0.7899680253373409,1.07230911576829,0.4675373697254688,0,0,0,1
1.986443025337341,1.37088731576829,0.9087408197254688,0,0,0,1
1.986443025337341,1.37088731576829,0.9087408197254688,0,0,0,1
1.761271025337341,-0.6639055842317099,0.4262589497254688,0,0,0,1
0.5424676253373409,-2.14948508423171,-0.13951722027453123,0,0,0,1
-1.076292474662659,-2.20856258423171,-0.31817463027453124,0,0,0,1
-0.4915871446626591,0.07573058076829013,0.5398672197254688,0,0,0,1
-0.4915871446626591,0.07573058076829013,0.5398672197254688,0,0,0,1
-0.4915871446626591,0.07573058076829013,0.5398672197254688,0,0,0,1
2.4264731253373406,0.2109407057682901,-0.45499602027453123,0,0,0,1
2.1077971253373406,-0.8767460442317099,-0.5979525202745312,0,0,0,1
2.1077971253373406,-0.8767460442317099,-0.5979525202745312,0,0,0,1
0.1564536253373409,-0.32350608423170985,-0.6585235802745312,0,0,0,1
-1.253296374662659,0.37427541576829015,-0.48685125027453124,0,0,0,1
-0.9253248746626591,0.21254523576829012,0.09005900972546876,0,0,0,1
-0.5308651746626591,-0.5403473242317098,0.14745899972546878,0,0,0,1
-0.5308651746626591,-0.5403473242317098,0.14745899972546878,0,0,0,1
1.467332425337341,-0.8407117542317099,0.26377245972546876,0,0,0,1
1.467332425337341,-0.8407117542317099,0.26377245972546876,0,0,0,1
1.361954225337341,-1.11401028423171,0.26085563972546877,0,0,0,1
0.8691497253373409,-0.3091542842317099,-0.21565011027453124,0,0,0,1
1.217608925337341,0.6493543557682901,-0.5012520802745312,0,0,0,1
0.5565810253373409,1.26729301576829,-0.4143717602745312,0,0,0,1
-1.397073274662659,1.15758301576829,-0.7705354802745312,0,0,0,1
-1.397073274662659,1.15758301576829,-0.7705354802745312,0,0,0,1
-1.397073274662659,1.15758301576829,-0.7705354802745312,0,0,0,1
-0.11295650466265911,-1.30645538423171,0.03547975272546878,0,0,0,1
0.9962058253373408,-0.6775538842317098,-0.09370592027453123,0,0,0,1
0.9962058253373408,-0.6775538842317098,-0.09370592027453123,0,0,0,1
2.2733217253373406,-0.03241677423170987,0.07052775972546876,0,0,0,1
0.7658724953373409,-0.47122348423170984,0.23587557972546877,0,0,0,1
-1.893835574662659,-0.7656767142317099,0.37766357972546877,0,0,0,1
-1.893835574662659,-0.7656767142317099,0.37766357972546877,0,0,0,1
0.8947243853373409,0.4493370857682901,0.04176398972546878,0,0,0,1
1.836636125337341,0.26907317576829015,-0.3370004002745312,0,0,0,1
1.836636125337341,0.26907317576829015,-0.3370004002745312,0,0,0,1
2.2323307253373406,-0.4120401242317099,-1.0858302802745312,0,0,0,1
-1.259605874662659,-0.35302091423170984,-0.8775615802745311,0,0,0,1
-1.263686674662659,-0.35885093423170983,-0.9081151802745312,0,0,0,1
-2.856775774662659,0.36020685576829015,0.6735223197254688,0,0,0,1
-2.856775774662659,0.36020685576829015,0.6735223197254688,0,0,0,1
-2.856775774662659,0.36020685576829015,0.6735223197254688,0,0,0,1
-2.856775774662659,0.36020685576829015,0.6735223197254688,0,0,0,1
3.750187425337341,0.2065869157682901,0.2954815897254688,0,0,0,1
3.750187425337341,0.2065869157682901,0.2954815897254688,0,0,0,1
4.577786025337341,0.17928415576829013,0.08614381972546876,0,0,0,1
0.4361262453373409,-1.87469218423171,-1.6464463802745313,0,0,0,1
-5.497525274662659,-0.5043998142317099,0.20400973972546876,0,0,0,1
-4.03767677466266,1.75810311576829,1.5793611197254689,0,0,0,1
0.2753968253373409,1.7770376157682901,2.0162520197254685,0,0,0,1
0.2753968253373409,1.7770376157682901,2.0162520197254685,0,0,0,1
3.6595836253373406,0.29565781576829014,0.48931553972546876,0,0,0,1
3.6595836253373406,0.29565781576829014,0.48931553972546876,0,0,0,1
4.624426425337341,-0.8086353342317099,0.3096509897254688,0,0,0,1
4.743586125337341,-1.10853298423171,-0.5111545802745312,0,0,0,1
4.743586125337341,-1.10853298423171,-0.5111545802745312,0,0,0,1
-4.7677392746626595,-0.02710581923170987,-0.6136639402745312,0,0,0,1
-4.7677392746626595,-0.02710581923170987,-0.6136639402745312,0,0,0,1
-1.740457074662659,0.6532993157682901,0.4259591397254688,0,0,0,1
1.541410925337341,0.23232923576829012,-0.03456703027453122,0,0,0,1
1.541410925337341,0.23232923576829012,-0.03456703027453122,0,0,0,1
3.5383497253373406,-0.40670428423170984,0.04739185972546878,0,0,0,1
3.5383497253373406,-0.40670428423170984,0.04739185972546878,0,0,0,1
3.443802325337341,-1.7177168842317099,-0.009574563874531225,0,0,0,1
1.115203425337341,-0.8300141842317098,0.16565748972546876,0,0,0,1
-1.414545474662659,1.01526711576829,0.30148521972546877,0,0,0,1
-1.414545474662659,1.01526711576829,0.30148521972546877,0,0,0,1
-2.6746978746626593,1.62805151576829,0.12974330972546877,0,0,0,1
-2.047530674662659,0.43069787576829016,-0.40712478027453125,0,0,0,1
-2.047530674662659,0.43069787576829016,-0.40712478027453125,0,0,0,1
-0.6544613746626591,-0.43210088423170984,-0.5547640802745312,0,0,0,1
-0.6544613746626591,-0.43210088423170984,-0.5547640802745312,0,0,0,1
1.099830125337341,-0.008262318231709871,-0.5014034802745312,0,0,0,1
2.9503322253373407,-0.25195125423170983,-0.34106688027453125,0,0,0,1
1.297313225337341,-0.5518220442317099,-1.1156179802745312,0,0,0,1
-2.215670574662659,-0.46014888423170985,1.124617619725469,0,0,0,1
-2.215670574662659,-0.46014888423170985,1.124617619725469,0,0,0,1
-1.550377374662659,1.24614441576829,1.0358779197254688,0,0,0,1
1.353268125337341,1.29816991576829,1.1262573197254688,0,0,0,1
1.353268125337341,1.29816991576829,1.1262573197254688,0,0,0,1
1.353268125337341,1.29816991576829,1.1262573197254688,0,0,0,1
3.5258422253373407,0.6567061757682902,0.20150848972546878,0,0,0,1
2.6137747253373407,0.33209546576829013,-0.9709903302745312,0,0,0,1
-1.022594874662659,-1.65421768423171,-2.1602504802745313,0,0,0,1
-1.022594874662659,-1.65421768423171,-2.1602504802745313,0,0,0,1
-1.022594874662659,-1.65421768423171,-2.1602504802745313,0,0,0,1
-1.933731074662659,-1.16718218423171,-0.8727554402745312,0,0,0,1
-2.745179274662659,0.9817959157682902,0.6585252597254688,0,0,0,1
-2.745179274662659,0.9817959157682902,0.6585252597254688,0,0,0,1
2.8189568253373407,1.6506187157682901,0.27798161972546875,0,0,0,1
3.973956625337341,-0.23100255423170987,-0.16594938027453124,0,0,0,1
1.965605225337341,-1.98215398423171,-1.3033804802745312,0,0,0,1
-0.8545422346626591,-3.4778942842317098,-0.9048955802745312,0,0,0,1
-4.376456274662659,-1.32848978423171,0.33932944972546875,0,0,0,1
-4.376456274662659,-1.32848978423171,0.33932944972546875,0,0,0,1
2.7238097253373406,2.08290091576829,0.9113105197254688,0,0,0,1
3.157097325337341,2.2799239157682902,0.25246068972546876,0,0,0,1
1.295784525337341,-1.45178438423171,-1.1858588802745311,0,0,0,1
-4.292915774662659,0.30211006576829014,-0.5985522802745312,0,0,0,1
-4.292915774662659,0.30211006576829014,-0.5985522802745312,0,0,0,1
-4.292915774662659,0.30211006576829014,-0.5985522802745312,0,0,0,1
2.0390229253373406,1.0727527157682901,-0.06327811027453123,0,0,0,1
2.0192047253373406,-0.1301432942317099,0.19153948972546878,0,0,0,1
2.0192047253373406,-0.1301432942317099,0.19153948972546878,0,0,0,1
2.585034825337341,-2.3240800842317095,0.3735643897254688,0,0,0,1
2.2276845253373407,-3.13371408423171,-0.06675187027453122,0,0,0,1
2.2276845253373407,-3.13371408423171,-0.06675187027453122,0,0,0,1
-1.358389374662659,-2.1167835842317095,-0.17651227027453123,0,0,0,1
-1.358389374662659,-2.1167835842317095,-0.17651227027453123,0,0,0,1
-1.500805374662659,0.32673244576829014,0.5393084597254688,0,0,0,1
-0.08540104466265912,1.15426851576829,0.5362233197254688,0,0,0,1
-0.08540104466265912,1.15426851576829,0.5362233197254688,0,0,0,1
-0.6136650746626591,0.41703029576829015,-0.26182261027453124,0,0,0,1
2.257041425337341,-0.5151073842317099,-0.42329398027453125,0,0,0,1
3.359949625337341,-0.6288822842317099,-0.7593927802745312,0,0,0,1
1.355829725337341,0.47931839576829016,-0.9814146802745312,0,0,0,1
-0.9005398746626591,0.9569884757682902,-0.3348335302745312,0,0,0,1
-2.367972874662659,0.39123358576829015,1.0203601197254688,0,0,0,1
-2.367972874662659,0.39123358576829015,1.0203601197254688,0,0,0,1
0.8555627253373409,-0.25220025423170983,-0.005625517674531225,0,0,0,1
0.8555627253373409,-0.25220025423170983,-0.005625517674531225,0,0,0,1
2.9010835253373406,-0.39753575423170984,-0.6071727802745311,0,0,0,1
2.9010835253373406,-0.39753575423170984,-0.6071727802745311,0,0,0,1
2.9010835253373406,-0.39753575423170984,-0.6071727802745311,0,0,0,1
3.0141120253373406,-0.9747417342317098,-1.4248347802745311,0,0,0,1
3.0141120253373406,-0.9747417342317098,-1.4248347802745311,0,0,0,1
3.0141120253373406,-0.9747417342317098,-1.4248347802745311,0,0,0,1
3.0141120253373406,-0.9747417342317098,-1.4248347802745311,0,0,0,1
1.121020825337341,-1.6632613842317099,-1.733659880274531,0,0,0,1
-3.114500074662659,1.26452361576829,0.6067144197254688,0,0,0,1
-0.031765444662659105,1.6697497157682901,1.2230318197254688,0,0,0,1
-0.031765444662659105,1.6697497157682901,1.2230318197254688,0,0,0,1
1.232746625337341,0.42870025576829013,0.7450998697254688,0,0,0,1
2.2652364253373407,-0.29110338423170984,-0.18218628027453124,0,0,0,1
3.330127225337341,-1.3293135842317099,-0.5515496802745312,0,0,0,1
-4.23714527466266,-0.16977591423170987,-0.6405133302745312,0,0,0,1
-4.23714527466266,-0.16977591423170987,-0.6405133302745312,0,0,0,1
-0.22576568466265912,2.01098471576829,0.47916355972546876,0,0,0,1
-0.2231583446626591,2.01225211576829,0.5003453797254688,0,0,0,1
-0.2231583446626591,2.01225211576829,0.5003453797254688,0,0,0,1
2.314499425337341,0.1612081157682901,-0.14118376027453122,0,0,0,1
2.314499425337341,0.1612081157682901,-0.14118376027453122,0,0,0,1
2.314499425337341,0.1612081157682901,-0.14118376027453122,0,0,0,1
2.970880025337341,-2.0946034842317096,-1.1285845802745311,0,0,0,1
2.970880025337341,-2.0946034842317096,-1.1285845802745311,0,0,0,1
2.970880025337341,-2.0946034842317096,-1.1285845802745311,0,0,0,1
-1.572593174662659,-1.43335738423171,0.5625631497254688,0,0,0,1
-1.399289574662659,2.22836191576829,0.7819978897254688,0,0,0,1
-0.7490906746626591,1.0446645157682901,0.44698318972546874,0,0,0,1
0.32665302533734086,-0.9475819842317098,-1.2882150802745311,0,0,0,1
0.32665302533734086,-0.9475819842317098,-1.2882150802745311,0,0,0,1
2.026335225337341,-1.0708952842317099,-1.1465098802745313,0,0,0,1
2.026335225337341,-1.0708952842317099,-1.1465098802745313,0,0,0,1
1.519677625337341,-0.38365308423170985,-1.0402988802745312,0,0,0,1
1.519677625337341,-0.38365308423170985,-1.0402988802745312,0,0,0,1
-0.19539402466265912,1.09732521576829,1.0930460197254688,0,0,0,1
-0.19539402466265912,1.09732521576829,1.0930460197254688,0,0,0,1
-0.19539402466265912,1.09732521576829,1.0930460197254688,0,0,0,1
-0.19539402466265912,1.09732521576829,1.0930460197254688,0,0,0,1
-0.2928376046626591,0.7098552757682901,1.2293547197254688,0,0,0,1
0.2611231953373409,-0.49328545423170983,-0.15731362027453122,0,0,0,1
1.187759925337341,-2.06860258423171,-0.49057178027453124,0,0,0,1
-0.5053286346626591,-2.12403768423171,-0.9807214802745312,0,0,0,1
-2.966677274662659,-0.5638693342317098,-1.1648889802745312,0,0,0,1
-2.966677274662659,-0.5638693342317098,-1.1648889802745312,0,0,0,1
-2.966677274662659,-0.5638693342317098,-1.1648889802745312,0,0,0,1
-1.528352274662659,0.9930286557682901,0.06734153472546878,0,0,0,1
-1.528352274662659,0.9930286557682901,0.06734153472546878,0,0,0,1
1.630424025337341,1.00459291576829,0.3353459497254688,0,0,0,1
0.3267369453373409,0.8852700157682901,-0.7377315802745312,0,0,0,1
0.3267369453373409,0.8852700157682901,-0.7377315802745312,0,0,0,1
-0.22846363466265912,-1.54393258423171,0.40049614972546876,0,0,0,1
-2.186693674662659,-0.46804283423170984,0.31047459972546876,0,0,0,1
-2.186693674662659,-0.46804283423170984,0.31047459972546876,0,0,0,1
2.413554725337341,0.17258994576829012,-0.37693778027453123,0,0,0,1
1.329142125337341,0.2128015357682901,-1.025474180274531,0,0,0,1
0.034961239337340896,-0.8051029242317098,-1.4449856802745311,0,0,0,1
-0.9797320246626591,-1.70258938423171,-1.3332015802745312,0,0,0,1
-0.9797320246626591,-1.70258938423171,-1.3332015802745312,0,0,0,1
-3.2646760746626593,-0.007153761231709872,0.9661761197254688,0,0,0,1
2.327481725337341,1.94810721576829,1.8795850197254689,0,0,0,1
3.6964937253373407,1.8675174157682901,1.0517669197254689,0,0,0,1
3.5989527253373406,1.04836481576829,-0.45270828027453125,0,0,0,1
3.5989527253373406,1.04836481576829,-0.45270828027453125,0,0,0,1
3.5989527253373406,1.04836481576829,-0.45270828027453125,0,0,0,1
2.256676225337341,-1.0652580842317099,-2.5655326802745315,0,0,0,1
-0.9736723746626591,-2.08450168423171,-1.7363241802745313,0,0,0,1
-5.357050874662659,-0.47458628423170984,-1.8919453802745312,0,0,0,1
-5.357050874662659,-0.47458628423170984,-1.8919453802745312,0,0,0,1
-1.392937174662659,2.0985863157682902,1.5095751197254688,0,0,0,1
1.973086825337341,1.81909251576829,0.23840829972546876,0,0,0,1
3.612939325337341,0.6142681157682901,0.14937206972546876,0,0,0,1
3.612939325337341,0.6142681157682901,0.14937206972546876,0,0,0,1
3.530252925337341,-3.0280143842317098,-1.1128021802745311,0,0,0,1
0.2907061753373409,-2.56446508423171,-0.4058108602745312,0,0,0,1
-3.903141474662659,-0.02558986423170987,0.31930377972546875,0,0,0,1
-5.219100974662659,2.3018665157682903,1.2376052197254688,0,0,0,1
-5.219100974662659,2.3018665157682903,1.2376052197254688,0,0,0,1
-2.6701263746626593,2.2482421157682904,1.0984376197254688,0,0,0,1
0.3016123953373409,1.55766211576829,0.8725830197254688,0,0,0,1
0.3016123953373409,1.55766211576829,0.8725830197254688,0,0,0,1
2.1244578253373407,0.2685728157682901,-0.7681606102745312,0,0,0,1
2.1244578253373407,0.2685728157682901,-0.7681606102745312,0,0,0,1
3.459473125337341,-0.42806713423170983,-1.3198925802745312,0,0,0,1
3.8869634253373406,-0.42736188423170984,-1.4292876802745311,0,0,0,1
3.8869634253373406,-0.42736188423170984,-1.4292876802745311,0,0,0,1
-1.458000674662659,0.13269280576829012,-0.7243249802745312,0,0,0,1
-3.2805327746626594,1.87008801576829,1.1105728197254687,0,0,0,1
1.560025725337341,-0.2020979642317099,0.8797042197254689,0,0,0,1
2.707112725337341,-1.02167008423171,-0.029963882274531225,0,0,0,1
2.5565286253373407,-1.72417088423171,-0.3654185802745312,0,0,0,1
-0.4801192146626591,-0.38141788423170986,-0.07248953027453123,0,0,0,1
-0.4801192146626591,-0.38141788423170986,-0.07248953027453123,0,0,0,1
-2.8387608746626594,1.31535071576829,-0.19803670027453124,0,0,0,1
-2.8387608746626594,1.31535071576829,-0.19803670027453124,0,0,0,1
0.0693879253373409,1.3562324157682901,0.42517991972546876,0,0,0,1
2.2469125253373408,-0.1279089542317099,-0.9357010402745312,0,0,0,1
2.4784121253373406,-0.8357047842317099,-1.4123348802745312,0,0,0,1
1.357965025337341,-0.6036691442317098,-1.3943839802745313,0,0,0,1
1.357965025337341,-0.6036691442317098,-1.3943839802745313,0,0,0,1
0.06156112533734089,-0.09076554423170986,0.010232536725468772,0,0,0,1
-3.058480274662659,2.01703391576829,0.6712274797254688,0,0,0,1
-3.058480274662659,2.01703391576829,0.6712274797254688,0,0,0,1
2.3922037253373407,-0.7605144842317099,-1.2734073802745312,0,0,0,1
2.3922037253373407,-0.7605144842317099,-1.2734073802745312,0,0,0,1
0.7296242853373409,-0.34291161423170985,-1.1007342802745312,0,0,0,1
0.7296242853373409,-0.34291161423170985,-1.1007342802745312,0,0,0,1
-0.9976382046626591,0.26466293576829014,-0.09806648027453123,0,0,0,1
-0.9976382046626591,0.26466293576829014,-0.09806648027453123,0,0,0,1
-2.465113174662659,1.16690151576829,-0.038572580274531226,0,0,0,1
-2.465113174662659,1.16690151576829,-0.038572580274531226,0,0,0,1
-2.550460274662659,0.9523526657682901,0.19957783972546878,0,0,0,1
0.8596492253373409,-0.1698960442317099,-0.5011411002745312,0,0,0,1
0.8596492253373409,-0.1698960442317099,-0.5011411002745312,0,0,0,1
0.8596492253373409,-0.1698960442317099,-0.5011411002745312,0,0,0,1
