acc_x,acc_y,acc_z,gyro_x,gyro_y,gyro_z,label
-2.270002874662659,-0.31807468423170987,0.3637975697254688,0,0,0,1
-2.270002874662659,-0.31807468423170987,0.3637975697254688,0,0,0,1
-2.270002874662659,-0.31807468423170987,0.3637975697254688,0,0,0,1
-2.880977174662659,-0.8714275842317099,0.14988836972546876,0,0,0,1
1.238366625337341,1.36610381576829,-0.3944015802745312,0,0,0,1
1.134468525337341,1.47605681576829,-0.7467413302745312,0,0,0,1
1.134468525337341,1.47605681576829,-0.7467413302745312,0,0,0,1
0.5468192253373408,-0.16369807423170987,-1.4146902802745311,0,0,0,1
-1.520820174662659,-0.5869600842317099,-1.0334880802745312,0,0,0,1
-1.960825874662659,-1.47427078423171,0.8976262197254689,0,0,0,1
-1.208258174662659,-0.7836483842317099,2.0185124197254685,0,0,0,1
-1.208258174662659,-0.7836483842317099,2.0185124197254685,0,0,0,1
1.557960025337341,1.32514491576829,1.4386678197254688,0,0,0,1
2.918320225337341,1.04396151576829,0.32424005972546877,0,0,0,1
2.918320225337341,1.04396151576829,0.32424005972546877,0,0,0,1
2.918320225337341,1.04396151576829,0.32424005972546877,0,0,0,1
2.0665584253373406,0.07908396576829013,-1.4474283802745311,0,0,0,1
-2.3169455746626593,1.15075991576829,-0.8784376802745312,0,0,0,1
-1.859374074662659,3.37518671576829,0.39445629972546875,0,0,0,1
0.10642863933734088,2.96632551576829,1.1284363197254688,0,0,0,1
2.0342593253373407,0.9145118757682902,0.5303939897254688,0,0,0,1
2.0342593253373407,0.9145118757682902,0.5303939897254688,0,0,0,1
2.146719425337341,-1.12036408423171,-0.6804764802745312,0,0,0,1
-2.1818813746626593,-3.1641797842317096,-0.8618706802745312,0,0,0,1
-3.002767574662659,-1.95812008423171,0.20379337972546877,0,0,0,1
-3.002767574662659,-1.95812008423171,0.20379337972546877,0,0,0,1
-3.002767574662659,-1.95812008423171,0.20379337972546877,0,0,0,1
-2.8600215746626594,0.5929392157682901,0.5282141897254689,0,0,0,1
-1.529788474662659,1.79525631576829,0.7411456197254688,0,0,0,1
1.168671125337341,1.43895891576829,0.23522492972546877,0,0,0,1
3.189290525337341,0.6879032157682902,-0.4054974602745312,0,0,0,1
0.8239398253373409,-0.15227272423170987,-1.8946406802745313,0,0,0,1
-0.9793038246626591,-0.12390470423170986,-1.287520580274531,0,0,0,1
-0.9793038246626591,-0.12390470423170986,-1.287520580274531,0,0,0,1
-2.695553274662659,0.5130073157682902,-0.6375216802745312,0,0,0,1
-3.5772042746626593,0.9238069157682901,0.11368891472546877,0,0,0,1
-3.5772042746626593,0.9238069157682901,0.11368891472546877,0,0,0,1
-3.5772042746626593,0.9238069157682901,0.11368891472546877,0,0,0,1
-3.5772042746626593,0.9238069157682901,0.11368891472546877,0,0,0,1
-2.128148074662659,0.6158349157682902,0.49590531972546875,0,0,0,1
-2.128148074662659,0.6158349157682902,0.49590531972546875,0,0,0,1
0.4446730753373409,-0.5795800842317098,0.7502477197254688,0,0,0,1
2.2784429253373406,-1.70362648423171,-0.4123405502745312,0,0,0,1
0.7254185853373409,-1.32294938423171,0.44378348972546877,0,0,0,1
-1.331652174662659,1.13583111576829,0.9168008197254688,0,0,0,1
-1.331652174662659,1.13583111576829,0.9168008197254688,0,0,0,1
-1.711619874662659,2.3073711157682903,0.9432627797254688,0,0,0,1
-1.711619874662659,2.3073711157682903,0.9432627797254688,0,0,0,1
0.2793440953373409,0.45298479576829015,0.0035035297254687745,0,0,0,1
0.2793440953373409,0.45298479576829015,0.0035035297254687745,0,0,0,1
-0.1403260046626591,0.44644515576829014,-1.407974880274531,0,0,0,1
-0.1403260046626591,0.44644515576829014,-1.407974880274531,0,0,0,1
0.8510346553373409,1.00494711576829,-1.2441548802745312,0,0,0,1
-0.6084236746626591,2.07521751576829,-1.1569676802745312,0,0,0,1
1.686483925337341,-0.9504563842317099,-0.3693589302745312,0,0,0,1
0.5070395653373408,-0.42320592423170983,0.09691592972546877,0,0,0,1
0.5070395653373408,-0.42320592423170983,0.09691592972546877,0,0,0,1
0.5070395653373408,-0.42320592423170983,0.09691592972546877,0,0,0,1
-0.16935776466265912,-0.6317671342317098,0.7652658497254688,0,0,0,1
-0.5256829146626592,-0.9791198142317099,1.2540817197254688,0,0,0,1
-1.679368474662659,-0.7989865842317099,1.0475519197254688,0,0,0,1
-1.677477374662659,0.20077617576829013,0.3104529197254688,0,0,0,1
-1.677477374662659,0.20077617576829013,0.3104529197254688,0,0,0,1
-1.677477374662659,0.20077617576829013,0.3104529197254688,0,0,0,1
0.9667716253373408,0.1745638757682901,-0.5652760802745311,0,0,0,1
1.437502425337341,0.07256713076829013,-2.3172762802745313,0,0,0,1
0.6592374253373409,1.01963541576829,-0.14847568027453123,0,0,0,1
0.6592374253373409,1.01963541576829,-0.14847568027453123,0,0,0,1
-1.294585674662659,1.3401636157682901,0.3422743397254688,0,0,0,1
-1.294585674662659,1.3401636157682901,0.3422743397254688,0,0,0,1
-1.294585674662659,1.3401636157682901,0.3422743397254688,0,0,0,1
0.5227465753373409,-1.01971608423171,1.7267079197254689,0,0,0,1
0.012502209337340895,-0.5731281842317099,0.19995435972546877,0,0,0,1
0.012502209337340895,-0.5731281842317099,0.19995435972546877,0,0,0,1
0.3872885853373409,-0.09863932423170987,-0.5275825802745312,0,0,0,1
0.034350888337340894,0.24779714576829012,-1.2408032802745312,0,0,0,1
0.034350888337340894,0.24779714576829012,-1.2408032802745312,0,0,0,1
0.034350888337340894,0.24779714576829012,-1.2408032802745312,0,0,0,1
-0.5207333446626591,-0.43356018423170983,-0.5698410802745312,0,0,0,1
-1.502306474662659,-0.07049050423170987,0.31033083972546877,0,0,0,1
-1.502306474662659,-0.07049050423170987,0.31033083972546877,0,0,0,1
-1.502306474662659,-0.07049050423170987,0.31033083972546877,0,0,0,1
-1.2905258746626591,0.14228277576829013,1.267953019725469,0,0,0,1
-1.220670174662659,0.6825274157682901,1.3636287197254688,0,0,0,1
-0.3400559246626591,0.49038401576829016,-0.33981768027453124,0,0,0,1
1.992319625337341,-0.7455966842317099,-0.9931880802745312,0,0,0,1
-2.1104440746626594,0.24674472576829012,-1.3723809802745313,0,0,0,1
-1.223223174662659,0.5678597157682902,-0.38791278027453124,0,0,0,1
-1.132676574662659,0.8839957157682902,0.21835037972546878,0,0,0,1
0.3854985253373409,0.5132431557682902,0.5343610197254688,0,0,0,1
0.3854985253373409,0.5132431557682902,0.5343610197254688,0,0,0,1
2.5657964253373406,-0.5805662842317099,0.4384404697254688,0,0,0,1
2.7508759253373407,-1.1978153842317099,0.17748292972546878,0,0,0,1
2.7508759253373407,-1.1978153842317099,0.17748292972546878,0,0,0,1
2.7508759253373407,-1.1978153842317099,0.17748292972546878,0,0,0,1
2.7508759253373407,-1.1978153842317099,0.17748292972546878,0,0,0,1
-2.1865572746626594,-0.22012634423170988,0.05903776972546878,0,0,0,1
-2.503925774662659,0.34638466576829013,0.16954751972546878,0,0,0,1
-1.481052874662659,0.9063131157682901,-0.22076348027453124,0,0,0,1
2.9776683253373406,-0.004627455231709872,-0.7118032302745312,0,0,0,1
2.9898419253373407,0.6248158157682902,-0.6468144802745311,0,0,0,1
2.9898419253373407,0.6248158157682902,-0.6468144802745311,0,0,0,1
0.5336375253373409,1.03935931576829,-0.7874435502745312,0,0,0,1
0.5336375253373409,1.03935931576829,-0.7874435502745312,0,0,0,1
0.5336375253373409,1.03935931576829,-0.7874435502745312,0,0,0,1
-1.411554774662659,0.6743651857682902,-0.11363819027453123,0,0,0,1
-2.6721652746626594,-0.38609172423170984,0.46365381972546876,0,0,0,1
-2.6721652746626594,-0.38609172423170984,0.46365381972546876,0,0,0,1
-1.718621674662659,-0.25759568423170986,0.5648555197254689,0,0,0,1
-1.718621674662659,-0.25759568423170986,0.5648555197254689,0,0,0,1
0.7867245853373409,-0.06749862823170986,0.5932293797254689,0,0,0,1
2.522006525337341,-0.02841691323170987,0.040528265725468776,0,0,0,1
2.522006525337341,-0.02841691323170987,0.040528265725468776,0,0,0,1
-2.284700874662659,-0.08552908423170986,-1.2366186802745311,0,0,0,1
-2.284700874662659,-0.08552908423170986,-1.2366186802745311,0,0,0,1
-1.995310274662659,0.44318296576829014,0.5853548197254689,0,0,0,1
-1.995310274662659,0.44318296576829014,0.5853548197254689,0,0,0,1
2.2777295253373406,0.7133331457682901,0.11926516972546877,0,0,0,1
3.0001702253373406,0.7405851157682901,0.17225381972546877,0,0,0,1
3.0001702253373406,0.7405851157682901,0.17225381972546877,0,0,0,1
-0.5110125346626591,-0.21998052423170988,-0.7637651302745312,0,0,0,1
-0.5110125346626591,-0.21998052423170988,-0.7637651302745312,0,0,0,1
-2.3510007746626593,-0.17016286423170987,-1.0463259802745313,0,0,0,1
-2.3510007746626593,-0.17016286423170987,-1.0463259802745313,0,0,0,1
-2.5763663746626593,0.29268814576829016,-0.6714911802745311,0,0,0,1
-1.003957274662659,1.0239937157682901,-0.4245576002745312,0,0,0,1
1.267736925337341,1.0031879157682901,-0.5263234802745311,0,0,0,1
1.267736925337341,1.0031879157682901,-0.5263234802745311,0,0,0,1
0.5358519753373409,-1.58544798423171,-0.38669278027453124,0,0,0,1
-1.146449574662659,-1.15505738423171,-0.04598501527453122,0,0,0,1
-1.146449574662659,-1.15505738423171,-0.04598501527453122,0,0,0,1
-1.886857974662659,-0.09063838823170987,0.5517102797254688,0,0,0,1
-1.886857974662659,-0.09063838823170987,0.5517102797254688,0,0,0,1
-1.640998374662659,0.8193117157682901,0.41979361972546875,0,0,0,1
-1.640998374662659,0.8193117157682901,0.41979361972546875,0,0,0,1
-1.640998374662659,0.8193117157682901,0.41979361972546875,0,0,0,1
1.462171125337341,-0.1495023842317099,-0.8959387802745312,0,0,0,1
1.022264025337341,0.40201564576829013,-0.6331237802745312,0,0,0,1
1.022264025337341,0.40201564576829013,-0.6331237802745312,0,0,0,1
-0.4442925246626591,1.6602403157682901,-0.15562955027453124,0,0,0,1
-0.4442925246626591,1.6602403157682901,-0.15562955027453124,0,0,0,1
-0.5485081746626591,0.9505850857682902,0.07268878972546877,0,0,0,1
-0.5485081746626591,0.9505850857682902,0.07268878972546877,0,0,0,1
-0.5485081746626591,0.9505850857682902,0.07268878972546877,0,0,0,1
0.3225388653373409,-1.05794428423171,-0.26721421027453124,0,0,0,1
0.3225388653373409,-1.05794428423171,-0.26721421027453124,0,0,0,1
0.6069903253373409,-0.7383672842317098,-0.3019646802745312,0,0,0,1
0.6069903253373409,-0.7383672842317098,-0.3019646802745312,0,0,0,1
0.6069903253373409,-0.7383672842317098,-0.3019646802745312,0,0,0,1
-0.4663643746626591,0.7562570157682902,-0.27238432027453124,0,0,0,1
0.12149001533734088,0.5134796157682902,-0.5077946502745312,0,0,0,1
0.12149001533734088,0.5134796157682902,-0.5077946502745312,0,0,0,1
0.8142867253373409,-0.8519796842317099,-0.5611802802745312,0,0,0,1
0.5852122253373409,-1.2858863842317099,-0.8451713802745312,0,0,0,1
-0.054653628662659104,-0.8513541842317098,-0.6339297802745312,0,0,0,1
-0.054653628662659104,-0.8513541842317098,-0.6339297802745312,0,0,0,1
-2.0600618746626593,0.33950688576829013,0.5756488197254688,0,0,0,1
-2.0600618746626593,0.33950688576829013,0.5756488197254688,0,0,0,1
1.638493125337341,-0.5620830442317098,-0.21593884027453122,0,0,0,1
1.314152225337341,0.28578727576829016,-1.0477946802745313,0,0,0,1
0.5517125253373409,0.8385769157682902,-1.5437001802745312,0,0,0,1
0.5517125253373409,0.8385769157682902,-1.5437001802745312,0,0,0,1
0.5517125253373409,0.8385769157682902,-1.5437001802745312,0,0,0,1
0.4235224853373409,0.19962817576829012,-1.479125180274531,0,0,0,1
0.4235224853373409,0.19962817576829012,-1.479125180274531,0,0,0,1
-1.616847474662659,-0.10309514423170987,-0.45380308027453126,0,0,0,1
-1.616847474662659,-0.10309514423170987,-0.45380308027453126,0,0,0,1
-1.357100974662659,-0.009421419231709872,-0.15250066027453124,0,0,0,1
-1.357100974662659,-0.009421419231709872,-0.15250066027453124,0,0,0,1
-1.357100974662659,-0.009421419231709872,-0.15250066027453124,0,0,0,1
-1.357100974662659,-0.009421419231709872,-0.15250066027453124,0,0,0,1
-0.2444214646626591,0.29259579576829015,0.8991833597254688,0,0,0,1
1.552122625337341,1.48599661576829,1.0258364197254688,0,0,0,1
1.048803825337341,2.3739669157682903,-0.14778879027453123,0,0,0,1
-0.3301167346626591,2.06686041576829,-1.4729397802745312,0,0,0,1
-0.3301167346626591,2.06686041576829,-1.4729397802745312,0,0,0,1
-1.176849874662659,-2.78197338423171,-1.812425280274531,0,0,0,1
-1.176849874662659,-2.78197338423171,-1.812425280274531,0,0,0,1
-1.176849874662659,-2.78197338423171,-1.812425280274531,0,0,0,1
-1.176849874662659,-2.78197338423171,-1.812425280274531,0,0,0,1
-1.176849874662659,-2.78197338423171,-1.812425280274531,0,0,0,1
-1.566700474662659,-0.05336314123170987,0.0023204967254687745,0,0,0,1
-1.565378674662659,-0.06408765423170987,0.011584607725468776,0,0,0,1
-1.565378674662659,-0.06408765423170987,0.011584607725468776,0,0,0,1
-1.546262274662659,-2.3219525842317097,0.6014361197254688,0,0,0,1
1.795212325337341,1.82173871576829,0.6155417797254689,0,0,0,1
-1.687608274662659,0.13707584576829013,-2.5934255802745314,0,0,0,1
-0.7191395746626591,-0.46303058423170984,3.2099193197254685,0,0,0,1
6.209550425337341,0.11201535576829014,1.4566600197254689,0,0,0,1
6.209550425337341,0.11201535576829014,1.4566600197254689,0,0,0,1
6.285918725337341,-2.17864248423171,-0.6449117802745312,0,0,0,1
3.3832412253373407,-4.094882084231711,-3.4594111802745315,0,0,0,1
3.3832412253373407,-4.094882084231711,-3.4594111802745315,0,0,0,1
-2.3048920746626593,-4.72733908423171,-3.3582584802745314,0,0,0,1
-8.253401274662659,-1.8588130842317099,-1.633148480274531,0,0,0,1
-8.253401274662659,-1.8588130842317099,-1.633148480274531,0,0,0,1
-8.253401274662659,-1.8588130842317099,-1.633148480274531,0,0,0,1
-6.146500274662659,4.27416941576829,3.414953919725469,0,0,0,1
-0.3464102546626591,3.2595751157682904,2.5349078197254684,0,0,0,1
4.782380725337341,0.9919756857682901,-0.04818979027453122,0,0,0,1
4.782380725337341,0.9919756857682901,-0.04818979027453122,0,0,0,1
5.234143725337341,-2.59486708423171,-3.5238392802745313,0,0,0,1
-5.656163674662659,1.05213241576829,-0.33319678027453126,0,0,0,1
-5.656163674662659,1.05213241576829,-0.33319678027453126,0,0,0,1
-8.697835274662658,3.1739139157682903,1.730754719725469,0,0,0,1
-8.697835274662658,3.1739139157682903,1.730754719725469,0,0,0,1
-8.697835274662658,3.1739139157682903,1.730754719725469,0,0,0,1
-8.697835274662658,3.1739139157682903,1.730754719725469,0,0,0,1
-6.144919874662659,1.8040990157682901,3.3366113197254688,0,0,0,1
-2.1408162746626593,-0.5981112542317099,2.5190145197254687,0,0,0,1
1.320910925337341,-1.81301988423171,0.5479973797254688,0,0,0,1
1.320910925337341,-1.81301988423171,0.5479973797254688,0,0,0,1
6.159843025337341,-1.97572038423171,-0.8074083802745312,0,0,0,1
5.170778725337341,-0.5751529842317099,-1.4253188802745311,0,0,0,1
1.992363425337341,1.16142641576829,-2.0199821802745315,0,0,0,1
-3.9022722746626592,1.04387131576829,-1.9640508802745311,0,0,0,1
-4.759992274662659,0.41999031576829016,1.1981821197254687,0,0,0,1
-4.759992274662659,0.41999031576829016,1.1981821197254687,0,0,0,1
-4.759992274662659,0.41999031576829016,1.1981821197254687,0,0,0,1
2.791864925337341,-0.07496121923170987,0.8053845197254689,0,0,0,1
