acc_x,acc_y,acc_z,gyro_x,gyro_y,gyro_z,label
-0.501531104662659,-0.9386657342317098,-1.0692241802745313,0,0,0,1
1.179188225337341,-0.1314620142317099,-0.7865061802745311,0,0,0,1
-1.769930374662659,-0.44410258423170984,0.5726179797254688,0,0,0,1
-1.769930374662659,-0.44410258423170984,0.5726179797254688,0,0,0,1
0.8726525253373408,1.28590801576829,1.1575982197254688,0,0,0,1
2.0436101253373407,1.51022211576829,0.5306961197254688,0,0,0,1
1.968616025337341,0.4332183157682901,-0.03428378827453123,0,0,0,1
-0.5745701746626591,-2.48009868423171,-1.1723715802745311,0,0,0,1
-2.229831274662659,-1.10742188423171,-0.7671495802745312,0,0,0,1
-2.108229174662659,1.01566661576829,-0.052027257274531225,0,0,0,1
-0.010002596962659106,1.92699241576829,0.48645719972546875,0,0,0,1
1.590661525337341,1.20067601576829,0.47365667972546877,0,0,0,1
1.243878825337341,-1.8963912842317099,-0.08186737027453123,0,0,0,1
1.243878825337341,-1.8963912842317099,-0.08186737027453123,0,0,0,1
-0.022524340662659105,-0.8005253442317098,0.14134606972546876,0,0,0,1
-1.384980674662659,0.41297249576829015,0.10244753972546877,0,0,0,1
-1.067781874662659,0.38935463576829016,0.15640624972546877,0,0,0,1
0.2675786253373409,-0.24438111423170988,-0.25826028027453124,0,0,0,1
0.2675786253373409,-0.24438111423170988,-0.25826028027453124,0,0,0,1
0.06234218533734089,0.06719129176829013,-0.08192936027453122,0,0,0,1
0.6320586253373409,0.34287198576829014,0.16447385972546877,0,0,0,1
0.3592906253373409,0.029913979768290126,-0.4628864802745312,0,0,0,1
0.3592906253373409,0.029913979768290126,-0.4628864802745312,0,0,0,1
0.7837176253373409,-0.9941699342317099,-0.48161628027453124,0,0,0,1
0.7837176253373409,-0.9941699342317099,-0.48161628027453124,0,0,0,1
0.7837176253373409,-0.9941699342317099,-0.48161628027453124,0,0,0,1
-0.22049568466265912,0.5722985157682902,0.5223927197254689,0,0,0,1
-0.020395739662659104,-0.27588738423170983,0.04869112172546878,0,0,0,1
-0.020395739662659104,-0.27588738423170983,0.04869112172546878,0,0,0,1
0.9446406253373408,0.32362483576829015,-0.009188206574531226,0,0,0,1
0.7736611253373409,0.35083316576829016,-0.15524450027453124,0,0,0,1
0.8675122253373408,-0.49417478423170985,-0.7059555402745312,0,0,0,1
-0.3261074746626591,-0.17744897423170988,-0.5473628402745312,0,0,0,1
-1.605537874662659,0.5711394757682902,-0.15487996027453124,0,0,0,1
0.0845770993373409,0.17728774576829012,0.24099155972546876,0,0,0,1
1.479158925337341,-0.3113821842317099,0.13875290972546878,0,0,0,1
2.0025163253373406,-0.23130006423170987,0.002933709725468774,0,0,0,1
0.8084178253373409,-0.23181883423170987,-0.4132779002745312,0,0,0,1
0.8084178253373409,-0.23181883423170987,-0.4132779002745312,0,0,0,1
-0.4783625446626591,0.2120661957682901,-0.7414795502745312,0,0,0,1
-2.9687108746626594,2.18373891576829,-0.36664203027453124,0,0,0,1
-2.9687108746626594,2.18373891576829,-0.36664203027453124,0,0,0,1
1.248402125337341,-1.50670328423171,-0.009563477374531225,0,0,0,1
1.248402125337341,-1.50670328423171,-0.009563477374531225,0,0,0,1
1.248402125337341,-1.50670328423171,-0.009563477374531225,0,0,0,1
1.398002125337341,-0.3173332642317099,-0.5954954802745311,0,0,0,1
1.398002125337341,-0.3173332642317099,-0.5954954802745311,0,0,0,1
1.398002125337341,-0.3173332642317099,-0.5954954802745311,0,0,0,1
-1.975348974662659,1.50885401576829,0.6732018897254688,0,0,0,1
-1.975348974662659,1.50885401576829,0.6732018897254688,0,0,0,1
-1.975348974662659,1.50885401576829,0.6732018897254688,0,0,0,1
2.348821225337341,-0.23174781423170987,-0.8095686802745312,0,0,0,1
2.404715125337341,-1.19022458423171,-0.8321449802745312,0,0,0,1
2.404715125337341,-1.19022458423171,-0.8321449802745312,0,0,0,1
-0.9505257446626592,2.25695541576829,0.6811595797254688,0,0,0,1
0.5941910953373409,1.1247933157682901,0.7344923897254688,0,0,0,1
0.8751263753373408,-0.6269354842317099,0.032216159725468776,0,0,0,1
-0.7328600746626591,-1.6984257842317099,-0.13879004027453123,0,0,0,1
-0.7328600746626591,-1.6984257842317099,-0.13879004027453123,0,0,0,1
-0.3205065546626591,1.08098221576829,-0.20370570027453122,0,0,0,1
0.2937579253373409,-0.32537418423170983,0.013532785725468774,0,0,0,1
0.2937579253373409,-0.32537418423170983,0.013532785725468774,0,0,0,1
-0.7392153746626591,0.38641478576829014,0.15011569972546876,0,0,0,1
0.3319811953373409,1.43024591576829,0.3266350897254688,0,0,0,1
0.3319811953373409,1.43024591576829,0.3266350897254688,0,0,0,1
1.297559325337341,-0.6419138842317098,0.04564025972546878,0,0,0,1
-1.938924774662659,-1.66776608423171,0.019480018725468774,0,0,0,1
-1.721342574662659,-0.27010650423170984,0.6447506797254688,0,0,0,1
0.8894458253373408,1.64185241576829,0.8071810897254689,0,0,0,1
1.960766325337341,-1.30412818423171,-0.6614219802745311,0,0,0,1
1.960766325337341,-1.30412818423171,-0.6614219802745311,0,0,0,1
1.960766325337341,-1.30412818423171,-0.6614219802745311,0,0,0,1
-1.094172974662659,-0.22071028423170988,0.5169222197254688,0,0,0,1
0.053543585337340896,-1.05097748423171,0.5659831197254688,0,0,0,1
1.549299725337341,-0.7550828842317099,0.7625055197254689,0,0,0,1
0.8188281253373408,-0.5754739442317098,-0.7348510802745312,0,0,0,1
0.6698823253373409,-0.27687786423170985,-1.2097413802745312,0,0,0,1
0.6698823253373409,-0.27687786423170985,-1.2097413802745312,0,0,0,1
-0.6440701346626592,1.19715861576829,-0.6953801202745312,0,0,0,1
-0.5101837746626591,1.78263531576829,-0.32706002027453124,0,0,0,1
0.27796794533734087,1.35361091576829,-0.4767852802745312,0,0,0,1
1.200941625337341,-0.3232170442317099,-0.057201357274531225,0,0,0,1
1.200941625337341,-0.3232170442317099,-0.057201357274531225,0,0,0,1
1.361115925337341,-1.22423158423171,-0.09844467027453123,0,0,0,1
1.361115925337341,-1.22423158423171,-0.09844467027453123,0,0,0,1
-0.1544060546626591,0.2330990457682901,-0.14227733027453124,0,0,0,1
-1.035953074662659,-0.10947255423170987,-0.40121148027453124,0,0,0,1
-0.5795769746626591,-1.04261788423171,-0.4984128202745312,0,0,0,1
1.320733525337341,-1.70197908423171,-0.2648063002745312,0,0,0,1
2.1610627253373407,-0.9428617142317098,-0.3057600002745312,0,0,0,1
0.9348759853373408,0.050441789768290134,-0.7178624802745311,0,0,0,1
-1.673515774662659,-0.08813665423170987,0.5753042197254689,0,0,0,1
-1.673515774662659,-0.08813665423170987,0.5753042197254689,0,0,0,1
-2.6793922746626593,0.8079661157682901,0.6614963197254689,0,0,0,1
-2.1030196746626593,1.47661191576829,0.9954580197254688,0,0,0,1
0.5578055253373408,1.21096301576829,0.3357358197254688,0,0,0,1
0.5578055253373408,1.21096301576829,0.3357358197254688,0,0,0,1
1.844596425337341,-1.40772288423171,-0.6825790802745312,0,0,0,1
-0.5976738746626591,-0.6357009242317099,-0.3125095102745312,0,0,0,1
-0.5976738746626591,-0.6357009242317099,-0.3125095102745312,0,0,0,1
-3.3635239746626593,1.02602321576829,0.35628001972546874,0,0,0,1
-0.6449999746626591,-0.009295445231709871,1.1486568197254687,0,0,0,1
0.6747412853373409,-0.6748006142317099,0.9173968197254688,0,0,0,1
3.8643622253373406,-0.9165205142317099,-0.6020266102745312,0,0,0,1
-0.8308653746626591,-0.8471929842317099,-0.7817613802745311,0,0,0,1
-0.8308653746626591,-0.8471929842317099,-0.7817613802745311,0,0,0,1
-2.7727164746626594,-0.9219957442317098,0.13852604972546878,0,0,0,1
-3.256245574662659,2.52562171576829,1.1814057197254688,0,0,0,1
0.054666058337340895,1.9738002157682901,1.231374219725469,0,0,0,1
2.996846725337341,-0.04229752423170987,0.3961640197254688,0,0,0,1
3.457773725337341,-2.0622777842317097,-0.15509853027453124,0,0,0,1
2.664689525337341,-2.76803178423171,-1.0806641802745311,0,0,0,1
2.122836625337341,-2.3291642842317097,-1.3423488802745311,0,0,0,1
2.122836625337341,-2.3291642842317097,-1.3423488802745311,0,0,0,1
-1.012834074662659,2.05128861576829,-0.34755710027453124,0,0,0,1
-3.0509709746626594,3.00198771576829,0.21777524972546877,0,0,0,1
1.504559025337341,-0.5520555842317099,-0.31345400027453124,0,0,0,1
2.3152977253373406,-1.0288310842317099,-0.49521258027453124,0,0,0,1
2.3152977253373406,-1.0288310842317099,-0.49521258027453124,0,0,0,1
-1.542851874662659,-1.36267108423171,-0.03548464327453123,0,0,0,1
-1.542851874662659,-1.36267108423171,-0.03548464327453123,0,0,0,1
-3.085231774662659,-0.01658589823170987,0.2636347697254688,0,0,0,1
1.541930725337341,1.12933471576829,0.05549004472546878,0,0,0,1
1.541930725337341,1.12933471576829,0.05549004472546878,0,0,0,1
1.541930725337341,1.12933471576829,0.05549004472546878,0,0,0,1
1.901981825337341,-1.67404718423171,-1.1914762802745311,0,0,0,1
0.8519044253373409,-2.0753354842317098,-0.9319375802745312,0,0,0,1
0.8519044253373409,-2.0753354842317098,-0.9319375802745312,0,0,0,1
-2.083265274662659,1.8969975157682901,0.5494665797254689,0,0,0,1
-2.083265274662659,1.8969975157682901,0.5494665797254689,0,0,0,1
0.7204280253373408,1.80875001576829,0.6017488497254688,0,0,0,1
0.14828826533734088,0.22776152576829012,-0.5486206102745311,0,0,0,1
0.14828826533734088,0.22776152576829012,-0.5486206102745311,0,0,0,1
-0.14037083466265912,-1.06515838423171,-0.2996905802745312,0,0,0,1
-0.6607622746626591,0.16796605576829013,-0.12904611027453122,0,0,0,1
-0.6607622746626591,0.16796605576829013,-0.12904611027453122,0,0,0,1
-0.6607622746626591,0.16796605576829013,-0.12904611027453122,0,0,0,1
1.095991625337341,-0.34861044423170984,0.14583959972546878,0,0,0,1
1.095991625337341,-0.34861044423170984,0.14583959972546878,0,0,0,1
1.095991625337341,-0.34861044423170984,0.14583959972546878,0,0,0,1
-0.9989008746626591,-0.5947811842317099,0.7736655197254688,0,0,0,1
-0.9989008746626591,-0.5947811842317099,0.7736655197254688,0,0,0,1
-0.7694744746626591,-0.6522485442317099,0.3273008997254688,0,0,0,1
1.614098125337341,0.41392179576829013,-0.05297795027453122,0,0,0,1
1.614098125337341,0.41392179576829013,-0.05297795027453122,0,0,0,1
-0.1784367446626591,0.48208056576829017,-0.3547224102745312,0,0,0,1
0.25274516533734087,0.7725830157682901,-0.16845146027453123,0,0,0,1
1.452380725337341,0.6665539157682902,-0.055403144274531226,0,0,0,1
1.452380725337341,0.6665539157682902,-0.055403144274531226,0,0,0,1
-0.6621050746626591,0.30944201576829017,0.5289720597254688,0,0,0,1
-0.7651142746626591,-0.10779909423170987,0.7713283197254688,0,0,0,1
-0.7651142746626591,-0.10779909423170987,0.7713283197254688,0,0,0,1
1.166081925337341,-0.47668526423170987,-0.2814622202745312,0,0,0,1
-1.760531874662659,-0.7400638842317099,-0.6870541802745311,0,0,0,1
-1.760531874662659,-0.7400638842317099,-0.6870541802745311,0,0,0,1
1.399293425337341,0.38893814576829017,-0.10711399027453122,0,0,0,1
-1.314452674662659,-0.7020088842317098,-0.029625745274531226,0,0,0,1
-1.314452674662659,-0.7020088842317098,-0.029625745274531226,0,0,0,1
0.9900002653373409,-0.0007275755317098713,0.09376862472546878,0,0,0,1
2.150391125337341,0.32277171576829017,-0.22645238027453124,0,0,0,1
2.150391125337341,0.32277171576829017,-0.22645238027453124,0,0,0,1
1.178609425337341,-0.6008856842317098,-0.11869720027453123,0,0,0,1
-0.1281514006626591,-0.6046110842317098,-0.11432293027453123,0,0,0,1
-1.248341074662659,-0.11080877423170987,-0.10955444027453123,0,0,0,1
0.5574908253373408,-0.33524940423170985,0.27916171972546877,0,0,0,1
0.5574908253373408,-0.33524940423170985,0.27916171972546877,0,0,0,1
0.5574908253373408,-0.33524940423170985,0.27916171972546877,0,0,0,1
