acc_x,acc_y,acc_z,gyro_x,gyro_y,gyro_z,label
0.1569104353373409,-1.45437298423171,-0.7609353402745311,0,0,0,1
0.4112439253373409,-0.4000226042317099,-0.18965283027453123,0,0,0,1
0.9371113953373409,-0.8700977842317098,-0.45071618027453125,0,0,0,1
0.9371113953373409,-0.8700977842317098,-0.45071618027453125,0,0,0,1
0.9371113953373409,-0.8700977842317098,-0.45071618027453125,0,0,0,1
0.8214068553373409,-0.8540593842317099,0.5150975897254688,0,0,0,1
0.8214068553373409,-0.8540593842317099,0.5150975897254688,0,0,0,1
0.8214068553373409,-0.8540593842317099,0.5150975897254688,0,0,0,1
0.03515006533734089,1.41092651576829,-0.5089123802745312,0,0,0,1
0.03515006533734089,1.41092651576829,-0.5089123802745312,0,0,0,1
-0.29261157466265914,0.7262069757682902,-0.3786621402745312,0,0,0,1
-0.5581955746626591,0.09811190576829013,-1.089181680274531,0,0,0,1
-0.5581955746626591,0.09811190576829013,-1.089181680274531,0,0,0,1
-0.2812800246626591,0.03418596576829013,0.46255197972546874,0,0,0,1
-0.2812800246626591,0.03418596576829013,0.46255197972546874,0,0,0,1
-0.6921925346626591,0.1937359057682901,1.3398158197254688,0,0,0,1
-0.6921925346626591,0.1937359057682901,1.3398158197254688,0,0,0,1
-0.2281670446626591,0.6466494157682902,0.9425490797254689,0,0,0,1
2.3869281253373407,-0.5324796842317099,-1.260764180274531,0,0,0,1
2.3869281253373407,-0.5324796842317099,-1.260764180274531,0,0,0,1
2.5816550253373407,-0.42021958423170985,-1.836524480274531,0,0,0,1
-1.695556174662659,1.0799685157682901,-1.0394641802745312,0,0,0,1
-1.695556174662659,1.0799685157682901,-1.0394641802745312,0,0,0,1
-3.055097074662659,0.36710013576829015,-0.21737388027453122,0,0,0,1
-3.055097074662659,0.36710013576829015,-0.21737388027453122,0,0,0,1
0.027353779337340893,-1.21547658423171,1.5823924197254688,0,0,0,1
0.027353779337340893,-1.21547658423171,1.5823924197254688,0,0,0,1
2.8351159253373406,-0.6978487842317098,0.6323275197254689,0,0,0,1
2.8351159253373406,-0.6978487842317098,0.6323275197254689,0,0,0,1
3.7645678253373407,0.34247567576829013,0.31997069972546877,0,0,0,1
3.7645678253373407,0.34247567576829013,0.31997069972546877,0,0,0,1
-0.8873009746626591,-0.25995452423170984,-0.8048954302745311,0,0,0,1
-0.8873009746626591,-0.25995452423170984,-0.8048954302745311,0,0,0,1
-4.510161274662659,-0.5506731842317099,-1.397251880274531,0,0,0,1
-1.648381674662659,-0.08119076423170987,0.09828432972546877,0,0,0,1
1.486747325337341,1.18993511576829,0.03257009272546878,0,0,0,1
3.3580918253373406,1.33768961576829,0.3897848397254688,0,0,0,1
3.3580918253373406,1.33768961576829,0.3897848397254688,0,0,0,1
3.3580918253373406,1.33768961576829,0.3897848397254688,0,0,0,1
2.096914725337341,-0.5465610842317099,0.17835160972546876,0,0,0,1
-0.015503390662659107,-1.45243658423171,0.20994957972546877,0,0,0,1
-0.015503390662659107,-1.45243658423171,0.20994957972546877,0,0,0,1
-2.8324122746626594,-1.72392408423171,-0.4231986102745312,0,0,0,1
-2.8324122746626594,-1.72392408423171,-0.4231986102745312,0,0,0,1
-3.8015465746626593,-0.41325033423170987,-0.5360510802745312,0,0,0,1
-1.219961674662659,0.7400104557682902,0.3815612497254688,0,0,0,1
-1.219961674662659,0.7400104557682902,0.3815612497254688,0,0,0,1
2.454863125337341,0.8122054157682902,-1.1713129802745312,0,0,0,1
0.5275550253373409,-2.10069058423171,-0.08905783427453123,0,0,0,1
0.5275550253373409,-2.10069058423171,-0.08905783427453123,0,0,0,1
-2.136256674662659,-0.6488839842317099,0.7425648897254689,0,0,0,1
-2.517926674662659,1.67523241576829,0.9270686197254688,0,0,0,1
-2.517926674662659,1.67523241576829,0.9270686197254688,0,0,0,1
-2.517926674662659,1.67523241576829,0.9270686197254688,0,0,0,1
-0.08977363866265911,0.9522109157682901,1.694724719725469,0,0,0,1
1.465420225337341,-0.22519358423170988,1.2522901197254688,0,0,0,1
0.7750697253373409,-0.31729758423170984,-0.3800777502745312,0,0,0,1
0.7750697253373409,-0.31729758423170984,-0.3800777502745312,0,0,0,1
1.403368525337341,-0.9724060842317098,-0.30688288027453126,0,0,0,1
1.403368525337341,-0.9724060842317098,-0.30688288027453126,0,0,0,1
-0.2862152746626591,-0.2925568042317099,-0.11340144427453124,0,0,0,1
-1.981391874662659,1.18110121576829,-0.7318320802745312,0,0,0,1
2.129375925337341,0.07906234576829013,-0.32601718027453125,0,0,0,1
1.857704625337341,-0.22080762423170988,-0.5327871202745311,0,0,0,1
-0.0596213176626591,-0.11676214423170987,-0.6647289102745312,0,0,0,1
-0.9670805746626591,-0.8730551442317098,-0.13327983027453122,0,0,0,1
-1.519987574662659,-0.09870860423170986,0.6889186197254689,0,0,0,1
0.42674209533734087,0.5871968157682902,0.7149216197254689,0,0,0,1
0.42674209533734087,0.5871968157682902,0.7149216197254689,0,0,0,1
0.42674209533734087,0.5871968157682902,0.7149216197254689,0,0,0,1
2.509647825337341,0.7136844557682901,0.4667090497254688,0,0,0,1
2.509647825337341,0.7136844557682901,0.4667090497254688,0,0,0,1
0.2626204653373409,-0.6605031342317098,-0.7779325802745312,0,0,0,1
0.2637696453373409,-1.68757678423171,-0.5295686802745312,0,0,0,1
0.2186494053373409,-1.12055678423171,-0.6842098802745312,0,0,0,1
-0.7097124746626591,0.32052834576829015,-0.7825648802745312,0,0,0,1
-0.9416737346626591,1.01593581576829,-0.21147075027453122,0,0,0,1
0.08531905533734088,0.6571530157682901,0.19346031972546876,0,0,0,1
0.9610600653373409,-0.1717364342317099,-0.06267431527453123,0,0,0,1
0.9777445953373409,-1.23710198423171,-0.5428233502745312,0,0,0,1
0.06643630533734089,-1.18880278423171,-0.3682675802745312,0,0,0,1
0.06643630533734089,-1.18880278423171,-0.3682675802745312,0,0,0,1
0.06643630533734089,-1.18880278423171,-0.3682675802745312,0,0,0,1
-0.9535755746626591,-0.31184658423170986,-0.5199656802745312,0,0,0,1
-0.7229637746626592,0.33863507576829016,-0.3983184402745312,0,0,0,1
-0.7229637746626592,0.33863507576829016,-0.3983184402745312,0,0,0,1
-0.7229637746626592,0.33863507576829016,-0.3983184402745312,0,0,0,1
0.5285144253373409,-0.9672814842317099,-0.05157187727453122,0,0,0,1
0.5285144253373409,-0.9672814842317099,-0.05157187727453122,0,0,0,1
1.169770725337341,-0.16748286423170988,-0.47330728027453123,0,0,0,1
1.169770725337341,-0.16748286423170988,-0.47330728027453123,0,0,0,1
1.061430425337341,-0.5766350442317099,-0.38139251027453125,0,0,0,1
-0.5719857046626591,-0.9378133842317099,-0.31147781027453125,0,0,0,1
-1.849342774662659,0.7412695457682902,0.35303595972546875,0,0,0,1
0.9294715253373409,0.29576798576829016,1.0284627197254688,0,0,0,1
2.3325667253373408,0.16533017576829012,0.2869077597254688,0,0,0,1
2.3325667253373408,0.16533017576829012,0.2869077597254688,0,0,0,1
1.859275325337341,-0.7542402842317099,0.29831417972546875,0,0,0,1
1.272472825337341,-0.8825605842317099,0.5559685497254688,0,0,0,1
-0.9193262746626591,1.12814801576829,0.6590997897254688,0,0,0,1
-0.4280857746626591,0.8209086157682901,-0.18307117027453124,0,0,0,1
-0.4280857746626591,0.8209086157682901,-0.18307117027453124,0,0,0,1
0.4408192753373409,-0.9452693242317098,-0.8734359802745312,0,0,0,1
0.4436764853373409,-1.04355618423171,-1.1004794802745312,0,0,0,1
0.4436764853373409,-1.04355618423171,-1.1004794802745312,0,0,0,1
0.4436764853373409,-1.04355618423171,-1.1004794802745312,0,0,0,1
1.164799225337341,-0.7940398242317098,-1.0008709802745313,0,0,0,1
1.164799225337341,-0.7940398242317098,-1.0008709802745313,0,0,0,1
1.965549925337341,-0.3760358542317099,-0.17599443027453124,0,0,0,1
1.965549925337341,-0.3760358542317099,-0.17599443027453124,0,0,0,1
0.09967757533734088,-0.2924404842317099,0.4522691197254688,0,0,0,1
0.09967757533734088,-0.2924404842317099,0.4522691197254688,0,0,0,1
0.09967757533734088,-0.2924404842317099,0.4522691197254688,0,0,0,1
-0.4610199746626591,0.021160471768290126,0.2993417697254688,0,0,0,1
-1.373590974662659,0.7047176557682902,-0.7888648802745312,0,0,0,1
-1.373590974662659,0.7047176557682902,-0.7888648802745312,0,0,0,1
1.619256525337341,0.04946506376829013,-1.3298482802745313,0,0,0,1
1.619256525337341,0.04946506376829013,-1.3298482802745313,0,0,0,1
1.902669425337341,0.16426811576829012,-1.9116368802745312,0,0,0,1
1.902669425337341,0.16426811576829012,-1.9116368802745312,0,0,0,1
1.657405425337341,-0.6981962842317099,-1.1242724802745312,0,0,0,1
-1.679508674662659,0.6304678457682902,0.7745545197254688,0,0,0,1
-1.679508674662659,0.6304678457682902,0.7745545197254688,0,0,0,1
-1.393146974662659,0.16568322576829012,1.8509218197254689,0,0,0,1
-1.393146974662659,0.16568322576829012,1.8509218197254689,0,0,0,1
-1.393146974662659,0.16568322576829012,1.8509218197254689,0,0,0,1
0.7495074253373409,-1.62378528423171,1.3396340197254688,0,0,0,1
1.491387825337341,-1.64178068423171,-0.40015318027453123,0,0,0,1
1.491387825337341,-1.64178068423171,-0.40015318027453123,0,0,0,1
1.761307225337341,-0.7009607842317098,-0.9667471802745312,0,0,0,1
-2.273218574662659,1.03787821576829,-0.42778828027453125,0,0,0,1
-2.1073417746626593,1.56610601576829,0.29288336972546875,0,0,0,1
-0.2117600246626591,1.04599111576829,0.31789919972546876,0,0,0,1
1.870804325337341,0.2307872757682901,0.05344506972546878,0,0,0,1
1.870804325337341,0.2307872757682901,0.05344506972546878,0,0,0,1
1.870804325337341,0.2307872757682901,0.05344506972546878,0,0,0,1
2.255522225337341,-0.6972961242317098,0.07690664972546878,0,0,0,1
1.306947225337341,-0.6108988342317099,-0.15314368027453124,0,0,0,1
0.013751523337340896,-1.46098918423171,0.40832825972546877,0,0,0,1
0.013751523337340896,-1.46098918423171,0.40832825972546877,0,0,0,1
-2.7911195746626594,-1.3984528842317099,-0.2583493302745312,0,0,0,1
-2.7911195746626594,-1.3984528842317099,-0.2583493302745312,0,0,0,1
-2.7911195746626594,-1.3984528842317099,-0.2583493302745312,0,0,0,1
-3.0150966746626593,-1.04128508423171,0.10523315972546878,0,0,0,1
-3.0150966746626593,-1.04128508423171,0.10523315972546878,0,0,0,1
2.631796425337341,0.7185433157682901,1.3642787197254689,0,0,0,1
2.480417725337341,0.9205725157682901,0.47856261972546876,0,0,0,1
1.751575925337341,1.04930561576829,-0.8717601802745312,0,0,0,1
1.751575925337341,1.04930561576829,-0.8717601802745312,0,0,0,1
1.545043525337341,0.03170904876829013,-1.6670115802745311,0,0,0,1
1.545043525337341,0.03170904876829013,-1.6670115802745311,0,0,0,1
-0.39379452466265913,-1.19842898423171,-1.4137107802745312,0,0,0,1
-0.39379452466265913,-1.19842898423171,-1.4137107802745312,0,0,0,1
-4.321513274662659,-0.27509860423170984,-0.38308635027453125,0,0,0,1
-4.321513274662659,-0.27509860423170984,-0.38308635027453125,0,0,0,1
0.33910895533734087,-0.28887985423170986,1.2225631197254687,0,0,0,1
0.33910895533734087,-0.28887985423170986,1.2225631197254687,0,0,0,1
2.1512523253373406,0.20838897576829013,0.5177506197254689,0,0,0,1
3.9148937253373406,0.13218046576829012,0.9661210197254688,0,0,0,1
4.415341725337341,-0.6897710342317098,-0.7318144202745311,0,0,0,1
2.198895025337341,-1.3557246842317099,-0.4596038202745312,0,0,0,1
-1.585140674662659,-0.2904221242317099,-0.37984052027453125,0,0,0,1
-2.8512492746626594,1.51961361576829,0.5057002197254689,0,0,0,1
-0.2691969746626591,2.7113342157682903,0.36842819972546875,0,0,0,1
-0.2691969746626591,2.7113342157682903,0.36842819972546875,0,0,0,1
-0.2691969746626591,2.7113342157682903,0.36842819972546875,0,0,0,1
0.47109557533734087,1.41866991576829,-0.9432734802745312,0,0,0,1
-0.9273190346626591,-0.5575263842317099,0.9433154197254688,0,0,0,1
-1.059105374662659,1.08654371576829,0.8581294697254688,0,0,0,1
-1.059105374662659,1.08654371576829,0.8581294697254688,0,0,0,1
-0.8857655346626591,2.15171121576829,1.8788807197254689,0,0,0,1
-0.8571371746626592,3.04274291576829,-0.20685604027453122,0,0,0,1
0.5811515253373409,2.46419571576829,-0.7977770802745312,0,0,0,1
0.6209969653373408,0.39596294576829016,-1.486899280274531,0,0,0,1
0.6209969653373408,0.39596294576829016,-1.486899280274531,0,0,0,1
-1.053067674662659,-0.1599702942317099,-3.0669426802745314,0,0,0,1
-1.053067674662659,-0.1599702942317099,-3.0669426802745314,0,0,0,1
-0.9019408046626591,-0.7147677842317098,-2.7863656802745314,0,0,0,1
2.124631425337341,-0.8774951842317098,-0.050027044274531224,0,0,0,1
3.2846284253373406,-0.1691361842317099,0.011377660725468773,0,0,0,1
3.2846284253373406,-0.1691361842317099,0.011377660725468773,0,0,0,1
1.107014225337341,-2.2146043842317096,-0.43634156027453125,0,0,0,1
1.107014225337341,-2.2146043842317096,-0.43634156027453125,0,0,0,1
0.24466945533734089,-4.07202238423171,0.4751338597254688,0,0,0,1
1.336320425337341,0.7595928157682902,3.2284423197254686,0,0,0,1
-3.3437676746626592,0.9952370157682902,2.5944290197254687,0,0,0,1
4.056259725337341,1.71642481576829,0.37370821972546875,0,0,0,1
4.569632025337341,2.6623442157682904,-0.5128309802745312,0,0,0,1
4.609813225337341,1.61480531576829,-1.7780232802745313,0,0,0,1
-1.868573174662659,-4.07859308423171,-1.991636280274531,0,0,0,1
-5.67868627466266,-1.15564708423171,-0.14000121027453122,0,0,0,1
-0.47479961466265913,0.2040234857682901,1.1939350197254688,0,0,0,1
-0.47479961466265913,0.2040234857682901,1.1939350197254688,0,0,0,1
4.553430125337341,0.48963727576829014,1.686368419725469,0,0,0,1
4.854906725337341,0.35112835576829016,1.1959621197254688,0,0,0,1
2.6882071253373407,0.10391153576829013,0.04104849572546878,0,0,0,1
2.6882071253373407,0.10391153576829013,0.04104849572546878,0,0,0,1
1.277249825337341,-1.1835841842317099,-1.324534780274531,0,0,0,1
-3.525389674662659,-0.26518682423170986,-1.0514894802745312,0,0,0,1
2.658422925337341,0.8099593657682902,-0.9815281802745311,0,0,0,1
2.863658425337341,-0.04765702423170987,-0.9759377802745312,0,0,0,1
1.690266125337341,-1.20353568423171,-1.2748615802745311,0,0,0,1
1.690266125337341,-1.20353568423171,-1.2748615802745311,0,0,0,1
1.389044325337341,-2.08604108423171,-1.2079894802745312,0,0,0,1
1.389044325337341,-2.08604108423171,-1.2079894802745312,0,0,0,1
1.389044325337341,-2.08604108423171,-1.2079894802745312,0,0,0,1
-0.09295032466265911,-1.89432308423171,-0.18520585027453124,0,0,0,1
-0.09295032466265911,-1.89432308423171,-0.18520585027453124,0,0,0,1
-0.6210140746626591,1.74518041576829,1.5268553197254688,0,0,0,1
1.751314625337341,0.6235927157682901,0.36414481972546875,0,0,0,1
1.751314625337341,0.6235927157682901,0.36414481972546875,0,0,0,1
2.3617062253373406,-0.5347227842317098,-0.4242823402745312,0,0,0,1
2.3047280253373406,-1.13509308423171,-1.0122358802745313,0,0,0,1
-0.5743393746626592,0.33682451576829014,-0.8922218402745312,0,0,0,1
-3.502753274662659,1.92411351576829,-1.0064100302745311,0,0,0,1
-3.1952795746626594,2.2132947157682903,-0.33770231027453124,0,0,0,1
-3.1952795746626594,2.2132947157682903,-0.33770231027453124,0,0,0,1
-0.3710598746626591,0.5926554157682902,0.5266506197254688,0,0,0,1
-0.3710598746626591,0.5926554157682902,0.5266506197254688,0,0,0,1
0.9585223253373409,-0.1786317242317099,0.25316979972546877,0,0,0,1
0.9585223253373409,-0.1786317242317099,0.25316979972546877,0,0,0,1
1.524540425337341,-0.7898072442317099,-0.4415537402745312,0,0,0,1
3.528992225337341,-1.5697444842317099,-0.39591256027453126,0,0,0,1
3.8999429253373408,-1.3986688842317099,0.3978126197254688,0,0,0,1
0.3072953253373409,0.3056569157682901,0.21791496972546878,0,0,0,1
