acc_x,acc_y,acc_z,gyro_x,gyro_y,gyro_z,label
0.4421391653373409,0.9239753157682902,0.7996878197254689,0,0,0,1
0.5978770253373409,0.8486526157682901,-0.005082757774531226,0,0,0,1
0.5978770253373409,0.8486526157682901,-0.005082757774531226,0,0,0,1
0.5978770253373409,0.8486526157682901,-0.005082757774531226,0,0,0,1
2.656556725337341,0.1529830557682901,-0.7977043802745312,0,0,0,1
1.423109525337341,-0.5220187842317099,-1.0774700802745312,0,0,0,1
-0.8506998746626591,-0.14865015423170988,-0.9704090802745312,0,0,0,1
-1.581843874662659,0.20252625576829011,-0.5524085802745312,0,0,0,1
-1.581843874662659,0.20252625576829011,-0.5524085802745312,0,0,0,1
0.2250800253373409,1.00485391576829,1.0151709197254688,0,0,0,1
1.045671025337341,-0.8783530442317099,0.6762914197254688,0,0,0,1
0.8955321253373408,-1.48772108423171,0.46321918972546877,0,0,0,1
0.8955321253373408,-1.48772108423171,0.46321918972546877,0,0,0,1
0.20679141533734088,0.7326311657682901,-0.5201658302745312,0,0,0,1
0.20679141533734088,0.7326311657682901,-0.5201658302745312,0,0,0,1
-0.6015057446626592,2.41540361576829,-0.19605395027453124,0,0,0,1
-0.6015057446626592,2.41540361576829,-0.19605395027453124,0,0,0,1
1.151627125337341,-3.14770338423171,-1.3507483802745313,0,0,0,1
1.151627125337341,-3.14770338423171,-1.3507483802745313,0,0,0,1
0.09359218533734089,-2.20325278423171,-1.6577148802745312,0,0,0,1
0.09359218533734089,-2.20325278423171,-1.6577148802745312,0,0,0,1
-0.5215239346626591,2.6392047157682903,1.9543901197254687,0,0,0,1
-0.5215239346626591,2.6392047157682903,1.9543901197254687,0,0,0,1
2.072652325337341,0.8221913757682902,-0.5999916802745312,0,0,0,1
2.072652325337341,0.8221913757682902,-0.5999916802745312,0,0,0,1
2.451874225337341,-1.03609298423171,-2.1148276802745314,0,0,0,1
2.451874225337341,-1.03609298423171,-2.1148276802745314,0,0,0,1
-2.8558311746626592,1.74325441576829,-0.08198687627453123,0,0,0,1
-2.8558311746626592,1.74325441576829,-0.08198687627453123,0,0,0,1
-1.671554074662659,3.06742051576829,1.0634794197254689,0,0,0,1
3.5289845253373406,1.86216141576829,0.41388436972546877,0,0,0,1
3.760201925337341,0.027328032768290128,-1.1402750802745312,0,0,0,1
3.760201925337341,0.027328032768290128,-1.1402750802745312,0,0,0,1
-2.5472325746626594,1.75422591576829,1.4027998197254687,0,0,0,1
-2.5472325746626594,1.75422591576829,1.4027998197254687,0,0,0,1
3.374245225337341,-1.56480978423171,0.04637822372546878,0,0,0,1
3.374245225337341,-1.56480978423171,0.04637822372546878,0,0,0,1
-3.443777574662659,0.7127597557682901,0.9071097697254689,0,0,0,1
-4.877163874662659,1.94845941576829,0.43443208972546876,0,0,0,1
-4.877163874662659,1.94845941576829,0.43443208972546876,0,0,0,1
-2.951333074662659,0.9778591557682902,-0.43406548027453123,0,0,0,1
0.9373765253373408,-0.6410922842317098,-0.5191583802745312,0,0,0,1
3.165943725337341,-1.99445618423171,-1.1264348802745312,0,0,0,1
1.509867225337341,-0.8384388842317099,-0.6483113802745312,0,0,0,1
-0.7776102746626591,1.24072341576829,0.33178564972546876,0,0,0,1
-0.7776102746626591,1.24072341576829,0.33178564972546876,0,0,0,1
-2.510241474662659,1.64245241576829,0.34030824972546875,0,0,0,1
-3.3266195746626592,0.6670589657682902,-0.22532007027453124,0,0,0,1
1.063602025337341,0.5654611157682902,0.18465241972546878,0,0,0,1
-0.34926174466265913,1.22066721576829,0.46572356972546874,0,0,0,1
0.6483817253373408,0.42904044576829015,0.7713405797254689,0,0,0,1
0.6483817253373408,0.42904044576829015,0.7713405797254689,0,0,0,1
-1.262994274662659,0.5599815157682901,-0.8853754102745311,0,0,0,1
-1.262994274662659,0.5599815157682901,-0.8853754102745311,0,0,0,1
-1.818845274662659,1.02182771576829,-0.6385669402745312,0,0,0,1
-1.583342974662659,0.33262326576829016,-0.11994103027453124,0,0,0,1
-1.583342974662659,0.33262326576829016,-0.11994103027453124,0,0,0,1
0.9670233853373409,-0.7090338842317099,-0.6176891802745311,0,0,0,1
3.294395025337341,-1.18927558423171,-0.14840725027453122,0,0,0,1
3.294395025337341,-1.18927558423171,-0.14840725027453122,0,0,0,1
-1.248629074662659,-1.64106018423171,0.4491383697254688,0,0,0,1
-3.258720874662659,-1.46854608423171,0.15842845972546876,0,0,0,1
-3.1670402746626594,-0.27704392423170987,1.2418689197254689,0,0,0,1
-1.333543274662659,1.18738251576829,0.9118713197254689,0,0,0,1
1.192906825337341,1.07972381576829,0.34814351972546875,0,0,0,1
1.192906825337341,1.07972381576829,0.34814351972546875,0,0,0,1
2.742925225337341,1.18430711576829,-0.7883087802745312,0,0,0,1
0.9972081253373409,1.01804421576829,-1.263049380274531,0,0,0,1
0.9972081253373409,1.01804421576829,-1.263049380274531,0,0,0,1
-0.2823633946626591,0.9475271157682902,0.08115931972546878,0,0,0,1
-0.2823633946626591,0.9475271157682902,0.08115931972546878,0,0,0,1
-1.814882274662659,-0.8547774842317098,-0.7011185802745312,0,0,0,1
3.079457725337341,-1.48083808423171,-0.5165561202745311,0,0,0,1
-1.558355774662659,1.43670481576829,0.3748178497254688,0,0,0,1
-3.2787928746626593,1.98023611576829,1.361990919725469,0,0,0,1
-3.2787928746626593,1.98023611576829,1.361990919725469,0,0,0,1
-2.830643274662659,-0.3389982442317099,0.9070867197254688,0,0,0,1
-0.8809113346626591,-1.24918568423171,-0.19700268027453122,0,0,0,1
4.139941725337341,-1.25465678423171,-1.6435110802745312,0,0,0,1
4.274968725337341,-0.8796736842317099,-0.7944790802745312,0,0,0,1
4.274968725337341,-0.8796736842317099,-0.7944790802745312,0,0,0,1
-0.07460735466265911,-0.34602682423170983,-0.8762238302745312,0,0,0,1
-5.370203974662659,1.84857511576829,-0.22509358027453122,0,0,0,1
-4.845847274662659,1.56383821576829,0.6270063197254688,0,0,0,1
1.102244825337341,0.39019717576829016,0.9787161197254688,0,0,0,1
3.535564925337341,0.7738277157682901,-0.3857258302745312,0,0,0,1
4.686359725337341,1.45516011576829,0.21490552972546878,0,0,0,1
3.5754123253373407,1.29503771576829,-0.5671438802745312,0,0,0,1
1.791294625337341,-0.30543295423170985,-2.602101380274531,0,0,0,1
-0.3478026246626591,-3.2119879842317096,-1.9758576802745311,0,0,0,1
-0.3478026246626591,-3.2119879842317096,-1.9758576802745311,0,0,0,1
-5.623593774662659,-0.17424986423170988,-0.11469093027453123,0,0,0,1
-2.5282978746626594,2.23512241576829,2.0116667197254685,0,0,0,1
1.177783525337341,3.0698649157682905,2.7649490197254685,0,0,0,1
2.4634527253373406,2.2312427157682904,1.7099577197254687,0,0,0,1
2.3686509253373407,-0.09098909423170987,0.5693935197254688,0,0,0,1
3.379684025337341,-1.79422618423171,-0.4938462802745312,0,0,0,1
0.007314221337340895,-0.9520848242317098,-1.2224783802745312,0,0,0,1
-3.787688274662659,1.82248851576829,-0.9991640202745312,0,0,0,1
0.06508971533734088,1.75658111576829,-0.8340043802745312,0,0,0,1
1.080726125337341,-0.7968927842317098,0.36694781972546875,0,0,0,1
1.080726125337341,-0.7968927842317098,0.36694781972546875,0,0,0,1
1.080726125337341,-0.7968927842317098,0.36694781972546875,0,0,0,1
0.2138705453373409,-1.67683358423171,1.067833119725469,0,0,0,1
0.7726273653373409,1.18768051576829,0.9392421497254688,0,0,0,1
0.027454869337340898,1.95729571576829,0.07336064972546877,0,0,0,1
0.2641053253373409,-0.1323188942317099,-0.3520651802745312,0,0,0,1
0.2641053253373409,-0.1323188942317099,-0.3520651802745312,0,0,0,1
0.2641053253373409,-0.1323188942317099,-0.3520651802745312,0,0,0,1
0.044278637337340894,-0.07576606823170987,-1.1153041802745312,0,0,0,1
0.6628356253373409,1.60387861576829,-0.05241707027453122,0,0,0,1
1.071946625337341,1.88747431576829,0.30770715972546875,0,0,0,1
1.001521625337341,0.5915340157682901,-0.0010685637745312254,0,0,0,1
0.21634818533734088,-1.43054798423171,0.4215404397254688,0,0,0,1
-1.171712374662659,1.1746267157682901,0.31961035972546875,0,0,0,1
-1.171712374662659,1.1746267157682901,0.31961035972546875,0,0,0,1
-1.171712374662659,1.1746267157682901,0.31961035972546875,0,0,0,1
-0.09591530466265911,1.21349101576829,-0.30033735027453123,0,0,0,1
0.010017888337340894,-0.011887234231709872,-0.8198452302745312,0,0,0,1
0.010017888337340894,-0.011887234231709872,-0.8198452302745312,0,0,0,1
0.0313086653373409,0.46440811576829016,-0.23665950027453123,0,0,0,1
0.0313086653373409,0.46440811576829016,-0.23665950027453123,0,0,0,1
1.734734025337341,0.17914246576829013,0.5847155697254688,0,0,0,1
-0.8927397746626591,-0.12477568423170986,-0.7015180802745312,0,0,0,1
-0.4140124146626591,-0.1294374842317099,-0.4602709802745312,0,0,0,1
1.157434925337341,-0.5456142242317099,-0.7224770502745311,0,0,0,1
1.157434925337341,-0.5456142242317099,-0.7224770502745311,0,0,0,1
2.464794725337341,-0.9815786342317099,0.43032639972546877,0,0,0,1
2.8043914253373408,-0.06522188423170987,0.8992821897254688,0,0,0,1
2.8043914253373408,-0.06522188423170987,0.8992821897254688,0,0,0,1
-0.6621441746626591,2.0203476157682903,0.11992188972546877,0,0,0,1
-2.0511984746626593,0.14499612576829013,-0.06456318627453123,0,0,0,1
0.5590348253373408,1.0966051157682901,-0.42666480027453124,0,0,0,1
2.970789425337341,1.7094226157682901,0.5484541197254689,0,0,0,1
2.970789425337341,1.7094226157682901,0.5484541197254689,0,0,0,1
2.711557925337341,0.9762418157682902,0.5297208197254688,0,0,0,1
1.358873825337341,-1.38243748423171,-0.25063339027453124,0,0,0,1
-0.07278583466265912,-1.59228838423171,-0.7071157802745311,0,0,0,1
-0.07278583466265912,-1.59228838423171,-0.7071157802745311,0,0,0,1
-2.318304074662659,1.31998591576829,0.04744878272546878,0,0,0,1
-0.6204323746626591,1.4269564157682901,0.6392131697254688,0,0,0,1
-0.015202029662659107,0.46336181576829016,0.5421004197254689,0,0,0,1
0.05319358533734089,-0.33374308423170984,-0.4525696802745312,0,0,0,1
0.05319358533734089,-0.33374308423170984,-0.4525696802745312,0,0,0,1
2.3796420253373407,-2.00974228423171,-0.8356086302745311,0,0,0,1
-1.719789974662659,1.1946719157682901,0.24649544972546877,0,0,0,1
-0.5064081746626591,2.1878047157682903,0.3494093197254688,0,0,0,1
0.15612079533734088,0.7632668757682901,-0.7278841402745312,0,0,0,1
-1.245581174662659,-1.48333778423171,-0.8339482802745312,0,0,0,1
-0.9462246746626591,-2.2312507842317095,-0.9066250802745311,0,0,0,1
-0.9462246746626591,-2.2312507842317095,-0.9066250802745311,0,0,0,1
-0.9450564246626592,1.5112339157682901,0.7019867597254689,0,0,0,1
0.5164370653373409,2.08013961576829,1.2578382197254687,0,0,0,1
0.9037251653373409,-0.8700524342317099,-0.20147076027453123,0,0,0,1
0.7481284253373409,-2.07440038423171,-1.1477494802745312,0,0,0,1
0.7481284253373409,-2.07440038423171,-1.1477494802745312,0,0,0,1
1.284801025337341,-2.5462603842317098,-1.432953680274531,0,0,0,1
1.284801025337341,-2.5462603842317098,-1.432953680274531,0,0,0,1
-0.7502674746626591,2.35741621576829,0.4226571897254688,0,0,0,1
-1.205277874662659,0.49636451576829016,0.45519103972546876,0,0,0,1
-1.205277874662659,0.49636451576829016,0.45519103972546876,0,0,0,1
-1.205277874662659,0.49636451576829016,0.45519103972546876,0,0,0,1
-0.6742577346626591,-0.6254589342317098,0.3379140797254688,0,0,0,1
0.8717093653373409,-1.5310797842317099,-0.038589628274531225,0,0,0,1
0.9245124253373409,-1.74611568423171,0.008854238725468772,0,0,0,1
-0.19336460466265912,1.09018251576829,0.5379529897254688,0,0,0,1
1.510148525337341,1.51343291576829,0.18035563972546878,0,0,0,1
1.510148525337341,1.51343291576829,0.18035563972546878,0,0,0,1
1.770270825337341,1.30067301576829,0.25727601972546876,0,0,0,1
0.3416419253373409,-0.3790175142317099,-0.7165839402745312,0,0,0,1
0.3416419253373409,-0.3790175142317099,-0.7165839402745312,0,0,0,1
0.3416419253373409,-0.3790175142317099,-0.7165839402745312,0,0,0,1
-2.063152774662659,-0.020074885231709874,0.27625843972546876,0,0,0,1
1.197041025337341,0.2200288357682901,0.6449900597254689,0,0,0,1
2.950230125337341,0.8536748457682901,-0.2555427802745312,0,0,0,1
2.450517225337341,1.13943911576829,-0.2538664102745312,0,0,0,1
2.450517225337341,1.13943911576829,-0.2538664102745312,0,0,0,1
