acc_x,acc_y,acc_z,gyro_x,gyro_y,gyro_z,label
-0.9033894346626591,-0.7460937842317099,0.8634171197254689,0,0,0,1
0.1480364953373409,0.47507329576829016,1.0311386197254688,0,0,0,1
0.6064276853373409,0.05212845276829013,0.10287114972546876,0,0,0,1
0.9731564653373409,0.11592316976829013,-0.8447786302745312,0,0,0,1
0.9731564653373409,0.11592316976829013,-0.8447786302745312,0,0,0,1
-1.395724774662659,0.7397615157682902,-0.3991163102745312,0,0,0,1
-0.025151713662659104,-0.5905077842317099,-0.2870868802745312,0,0,0,1
-0.025151713662659104,-0.5905077842317099,-0.2870868802745312,0,0,0,1
1.143565725337341,-0.9501015342317098,0.20265542972546877,0,0,0,1
1.143565725337341,-0.9501015342317098,0.20265542972546877,0,0,0,1
1.143565725337341,-0.9501015342317098,0.20265542972546877,0,0,0,1
1.390718925337341,-0.0027441272317098716,0.08881625372546877,0,0,0,1
1.208053125337341,0.7626113457682901,0.30848131972546877,0,0,0,1
0.5758452553373409,0.22216674576829012,-0.057367952274531224,0,0,0,1
-0.08705089866265911,-0.7803315342317099,0.07689025972546877,0,0,0,1
-0.6333145746626591,-0.5307196242317098,-0.27520874027453124,0,0,0,1
-1.138756274662659,0.09517322576829013,-0.5857483502745312,0,0,0,1
-0.7814478746626591,0.29227781576829015,-0.8759832802745312,0,0,0,1
0.0379605453373409,0.9367900657682902,-0.30389533027453125,0,0,0,1
-0.24190376466265912,0.7006069557682901,0.04289737172546878,0,0,0,1
0.7351041253373409,0.4137119557682901,0.39874609972546876,0,0,0,1
0.7351041253373409,0.4137119557682901,0.39874609972546876,0,0,0,1
1.367405425337341,0.32908223576829015,0.21922423972546878,0,0,0,1
0.23689319533734088,-1.10172648423171,-0.23887077027453124,0,0,0,1
0.23689319533734088,-1.10172648423171,-0.23887077027453124,0,0,0,1
0.23689319533734088,-1.10172648423171,-0.23887077027453124,0,0,0,1
0.23689319533734088,-1.10172648423171,-0.23887077027453124,0,0,0,1
0.23689319533734088,-1.10172648423171,-0.23887077027453124,0,0,0,1
-2.1491942746626593,-0.34896258423170984,-0.04277018027453122,0,0,0,1
-2.1491942746626593,-0.34896258423170984,-0.04277018027453122,0,0,0,1
0.6795144253373409,0.5092251457682901,0.15946745972546877,0,0,0,1
1.990582025337341,0.3419773757682901,-0.44703952027453125,0,0,0,1
2.0003400253373407,0.5392076157682901,-0.45122293027453125,0,0,0,1
1.961761925337341,-0.23423028423170988,-1.0959200802745312,0,0,0,1
1.961761925337341,-0.23423028423170988,-1.0959200802745312,0,0,0,1
0.3721366053373409,-0.29440538423170987,-0.6441028402745311,0,0,0,1
-2.4066176746626593,0.8899596157682902,0.046589223725468774,0,0,0,1
-3.622537074662659,1.08500611576829,0.7880225197254688,0,0,0,1
-2.400126474662659,0.07060313576829012,1.093706419725469,0,0,0,1
-0.3365235146626591,-0.5816406442317098,1.5084148197254688,0,0,0,1
1.446350625337341,-0.4053447042317099,0.39706447972546877,0,0,0,1
2.280912925337341,-0.25676505423170987,-1.437040380274531,0,0,0,1
2.280912925337341,-0.25676505423170987,-1.437040380274531,0,0,0,1
2.280912925337341,-0.25676505423170987,-1.437040380274531,0,0,0,1
2.280912925337341,-0.25676505423170987,-1.437040380274531,0,0,0,1
-0.9739069746626591,1.32955411576829,-0.7974522402745312,0,0,0,1
-3.530543774662659,2.2420990157682903,-0.5255951802745312,0,0,0,1
-2.8951758746626592,1.2686775157682901,-0.36031053027453125,0,0,0,1
0.7837672253373409,-1.57978768423171,0.14122798972546877,0,0,0,1
2.5772672253373408,1.28747371576829,-0.06643507027453123,0,0,0,1
2.5772672253373408,1.28747371576829,-0.06643507027453123,0,0,0,1
2.5772672253373408,1.28747371576829,-0.06643507027453123,0,0,0,1
2.5772672253373408,1.28747371576829,-0.06643507027453123,0,0,0,1
-0.9847159246626591,1.68213881576829,0.8213262197254688,0,0,0,1
-0.9847159246626591,1.68213881576829,0.8213262197254688,0,0,0,1
-3.595795574662659,-0.6133023342317099,-0.46569798027453124,0,0,0,1
-3.595795574662659,-0.6133023342317099,-0.46569798027453124,0,0,0,1
0.9339642653373409,-1.10268888423171,-0.7469629402745311,0,0,0,1
0.9339642653373409,-1.10268888423171,-0.7469629402745311,0,0,0,1
2.436837725337341,-0.25536368423170985,-0.7323007802745312,0,0,0,1
3.1818890253373406,-0.013776396231709872,-0.23735282027453122,0,0,0,1
2.2135720253373408,0.10386009576829013,-0.22300395027453124,0,0,0,1
2.2135720253373408,0.10386009576829013,-0.22300395027453124,0,0,0,1
-2.3627122746626594,1.0872813157682901,0.31013671972546875,0,0,0,1
-1.547785274662659,-0.9588439242317098,-0.06988028027453122,0,0,0,1
3.4454789253373406,0.10653311576829012,-0.3946605602745312,0,0,0,1
2.6790585253373407,1.94931321576829,0.060459343725468774,0,0,0,1
2.6790585253373407,1.94931321576829,0.060459343725468774,0,0,0,1
0.014967457337340895,1.97341071576829,-0.24078628027453122,0,0,0,1
-2.663201274662659,-0.022828883231709875,-0.26281461027453124,0,0,0,1
-1.567408974662659,-0.6420149842317099,-0.43889883027453125,0,0,0,1
-0.07977817466265912,-0.47006030423170986,0.47785826972546874,0,0,0,1
-0.07977817466265912,-0.47006030423170986,0.47785826972546874,0,0,0,1
-0.07977817466265912,-0.47006030423170986,0.47785826972546874,0,0,0,1
-1.484012074662659,0.3391067857682901,-0.10063776527453124,0,0,0,1
0.6952996253373409,0.04209016276829013,-0.5745647302745311,0,0,0,1
0.7190461253373409,-0.5648934842317098,-0.19962600027453123,0,0,0,1
0.7190461253373409,-0.5648934842317098,-0.19962600027453123,0,0,0,1
-0.19173191466265913,0.8765761157682902,-0.19399002027453122,0,0,0,1
1.336823025337341,0.6224382657682901,0.18637176972546876,0,0,0,1
-1.343621674662659,0.8914990157682902,-0.10336462027453124,0,0,0,1
-0.6577791746626591,-0.16266347423170988,-0.26619193027453125,0,0,0,1
-0.3596224746626591,-0.7101041442317099,-0.3075638102745312,0,0,0,1
-0.3596224746626591,-0.7101041442317099,-0.3075638102745312,0,0,0,1
2.285389425337341,0.1713861157682901,0.5284901497254688,0,0,0,1
2.285389425337341,0.1713861157682901,0.5284901497254688,0,0,0,1
2.285389425337341,0.1713861157682901,0.5284901497254688,0,0,0,1
0.6656975953373409,0.6366895657682902,-0.18072197027453124,0,0,0,1
-0.5219998246626592,0.09049149576829013,-0.8954841202745312,0,0,0,1
0.4533524653373409,-1.07081348423171,-0.7958125802745312,0,0,0,1
-2.600131974662659,-0.04312348023170987,-0.38884160027453124,0,0,0,1
1.165990325337341,1.0944804157682901,0.9504278597254688,0,0,0,1
1.165990325337341,1.0944804157682901,0.9504278597254688,0,0,0,1
2.5524583253373407,0.9076940157682901,0.9570165597254688,0,0,0,1
1.738261725337341,0.7287555557682901,0.05598833972546877,0,0,0,1
1.772915425337341,-0.44267724423170984,-0.35324535027453124,0,0,0,1
-2.513476274662659,-1.14410438423171,-0.8295949802745312,0,0,0,1
-1.539058174662659,-2.8554415842317096,-0.26816645027453123,0,0,0,1
-1.539058174662659,-2.8554415842317096,-0.26816645027453123,0,0,0,1
2.850514925337341,1.62979041576829,1.9901871197254688,0,0,0,1
4.208268725337341,2.6117675157682902,1.748715119725469,0,0,0,1
2.7475896253373406,3.3430631157682904,0.27600588972546874,0,0,0,1
2.7475896253373406,3.3430631157682904,0.27600588972546874,0,0,0,1
2.7475896253373406,3.3430631157682904,0.27600588972546874,0,0,0,1
0.8974280253373409,-0.5198177542317098,-2.6270536802745315,0,0,0,1
0.8974280253373409,-0.5198177542317098,-2.6270536802745315,0,0,0,1
-5.1158292746626595,-1.93297978423171,-2.4516153802745313,0,0,0,1
-4.823198774662659,-0.47147868423170985,0.4301998197254688,0,0,0,1
-1.656059774662659,1.17091441576829,2.8407518197254684,0,0,0,1
-1.656059774662659,1.17091441576829,2.8407518197254684,0,0,0,1
0.4154009953373409,2.35189011576829,3.2337820197254685,0,0,0,1
2.802814025337341,1.8757380157682901,1.9428267197254687,0,0,0,1
4.790690725337341,-0.14798496423170987,-0.10237268027453122,0,0,0,1
4.790690725337341,-0.14798496423170987,-0.10237268027453122,0,0,0,1
3.049942525337341,-3.2268208842317097,-3.0920056802745313,0,0,0,1
-4.253946774662659,0.2564577357682901,-0.6749328802745311,0,0,0,1
-5.65219687466266,3.06748751576829,1.4126105197254688,0,0,0,1
-5.65219687466266,3.06748751576829,1.4126105197254688,0,0,0,1
-4.300256674662659,3.8803024157682904,2.4885065197254685,0,0,0,1
2.7240338253373406,0.08817766976829013,-0.023362846274531227,0,0,0,1
2.7240338253373406,0.08817766976829013,-0.023362846274531227,0,0,0,1
5.336599725337341,-1.94233358423171,-0.42940155027453125,0,0,0,1
5.336599725337341,-1.94233358423171,-0.42940155027453125,0,0,0,1
3.704539725337341,-1.83610358423171,-2.8065533802745315,0,0,0,1
3.704539725337341,-1.83610358423171,-2.8065533802745315,0,0,0,1
-5.723167274662659,3.3478937157682904,1.018525319725469,0,0,0,1
-5.723167274662659,3.3478937157682904,1.018525319725469,0,0,0,1
-4.52769127466266,1.37119941576829,1.439490719725469,0,0,0,1
-4.52769127466266,1.37119941576829,1.439490719725469,0,0,0,1
0.9995837253373409,-1.29642458423171,0.45923187972546875,0,0,0,1
3.5209899253373407,-0.9207924442317098,-0.41315130027453123,0,0,0,1
4.909593125337341,-0.9586782242317099,-0.4094676102745312,0,0,0,1
4.909593125337341,-0.9586782242317099,-0.4094676102745312,0,0,0,1
0.2151580053373409,-0.8751214842317099,-0.8040508802745312,0,0,0,1
-2.5486077746626594,0.14079721576829013,-0.19866917027453124,0,0,0,1
-2.9188922746626593,1.97704731576829,-0.3909090502745312,0,0,0,1
-3.8720717746626594,1.61099981576829,-0.5649018802745311,0,0,0,1
-1.367847874662659,0.6854901157682901,-0.47026432027453124,0,0,0,1
-0.016518099662659106,-0.40124426423170984,-0.20877960027453124,0,0,0,1
-0.016518099662659106,-0.40124426423170984,-0.20877960027453124,0,0,0,1
1.870058525337341,-0.2744564842317099,0.14432772972546878,0,0,0,1
3.065229925337341,-0.0043460096317098715,0.4707510497254688,0,0,0,1
1.356353325337341,0.5297819157682901,-0.0008049322745312254,0,0,0,1
1.356353325337341,0.5297819157682901,-0.0008049322745312254,0,0,0,1
-0.1472744746626591,-0.5412535842317099,-0.34192082027453125,0,0,0,1
-1.795869374662659,-0.5813831542317098,-0.13186234027453123,0,0,0,1
-1.795869374662659,-0.5813831542317098,-0.13186234027453123,0,0,0,1
-3.3025722746626593,-0.37682030423170987,0.014620540725468773,0,0,0,1
-2.555260674662659,-0.06797764423170986,-0.06828156227453122,0,0,0,1
-2.555260674662659,-0.06797764423170986,-0.06828156227453122,0,0,0,1
2.1469054253373407,-0.32909731423170985,0.07520627972546877,0,0,0,1
2.9735217253373407,0.14299501576829013,0.7541383797254688,0,0,0,1
2.9735217253373407,0.14299501576829013,0.7541383797254688,0,0,0,1
2.9403424253373407,0.5217123157682901,-0.5583155502745312,0,0,0,1
2.9403424253373407,0.5217123157682901,-0.5583155502745312,0,0,0,1
-0.5073456746626591,-1.56940978423171,-1.4505012802745312,0,0,0,1
-3.220739874662659,-2.0809256842317096,-1.4745453802745312,0,0,0,1
-5.686903974662659,-1.95755538423171,-0.14318577027453122,0,0,0,1
-5.327574274662659,-1.5512238842317099,1.133680119725469,0,0,0,1
-1.788615674662659,-0.9101757842317099,3.4919373197254684,0,0,0,1
7.145212725337341,3.1978089157682903,0.08074110572546878,0,0,0,1
6.716551325337341,4.32222321576829,-2.4553146802745314,0,0,0,1
6.716551325337341,4.32222321576829,-2.4553146802745314,0,0,0,1
4.523964425337341,3.40952041576829,-4.529798280274531,0,0,0,1
-2.007049574662659,-1.13309118423171,-14.330718680274531,0,0,0,1
-5.373288274662659,-2.4854707842317096,-6.302888680274531,0,0,0,1
-5.373288274662659,-2.4854707842317096,-6.302888680274531,0,0,0,1
-6.941842574662659,3.10031271576829,9.85446331972547,0,0,0,1
-1.332809874662659,3.00925831576829,10.98296231972547,0,0,0,1
4.880027325337341,0.9470610157682902,5.315477319725469,0,0,0,1
6.33406672533734,-1.26425308423171,0.21139928972546876,0,0,0,1
6.33406672533734,-1.26425308423171,0.21139928972546876,0,0,0,1
6.33406672533734,-1.26425308423171,0.21139928972546876,0,0,0,1
-8.348532274662658,4.38589141576829,5.882184319725469,0,0,0,1
-3.619781974662659,4.38241991576829,7.684528319725469,0,0,0,1
-3.619781974662659,4.38241991576829,7.684528319725469,0,0,0,1
3.642830425337341,1.01067951576829,0.7239566197254689,0,0,0,1
5.364576725337341,-0.9638973842317099,-2.8214843802745313,0,0,0,1
5.364576725337341,-0.9638973842317099,-2.8214843802745313,0,0,0,1
5.364576725337341,-0.9638973842317099,-2.8214843802745313,0,0,0,1
5.364576725337341,-0.9638973842317099,-2.8214843802745313,0,0,0,1
4.275128725337341,-3.43752568423171,-8.45247268027453,0,0,0,1
4.275128725337341,-3.43752568423171,-8.45247268027453,0,0,0,1
4.275128725337341,-3.43752568423171,-8.45247268027453,0,0,0,1
-6.6597337746626595,3.8549239157682904,0.6279945197254688,0,0,0,1
-7.032059674662659,3.7509209157682903,3.6132354197254686,0,0,0,1
-7.032059674662659,3.7509209157682903,3.6132354197254686,0,0,0,1
4.367473125337341,-2.87042548423171,0.7346317197254688,0,0,0,1
6.2864804253373405,-2.14829058423171,-0.2859587402745312,0,0,0,1
6.2864804253373405,-2.14829058423171,-0.2859587402745312,0,0,0,1
6.2864804253373405,-2.14829058423171,-0.2859587402745312,0,0,0,1
0.3548159753373409,2.5449443157682903,-2.0863526802745316,0,0,0,1
0.3548159753373409,2.5449443157682903,-2.0863526802745316,0,0,0,1
0.3548159753373409,2.5449443157682903,-2.0863526802745316,0,0,0,1
0.3521094453373409,2.5240977157682902,-2.1544216802745315,0,0,0,1
-4.6949047746626595,0.8367386157682901,-1.7933981802745311,0,0,0,1
-4.6949047746626595,0.8367386157682901,-1.7933981802745311,0,0,0,1
-4.6949047746626595,0.8367386157682901,-1.7933981802745311,0,0,0,1
-5.659711274662659,-1.76469008423171,-1.8449962802745312,0,0,0,1
0.34961940533734087,-1.3831115842317099,2.8129513197254687,0,0,0,1
4.78188572533734,0.8216953457682902,3.3980323197254685,0,0,0,1
4.78188572533734,0.8216953457682902,3.3980323197254685,0,0,0,1
4.241159725337341,0.5091354157682901,-0.5185417202745312,0,0,0,1
2.2374597253373407,-2.2974347842317098,-2.9426884802745312,0,0,0,1
-0.6902413246626591,-4.59396308423171,-4.405802980274531,0,0,0,1
-5.305399274662659,-3.2468140842317097,-5.314800680274532,0,0,0,1
-5.305399274662659,-3.2468140842317097,-5.314800680274532,0,0,0,1
