acc_x,acc_y,acc_z,gyro_x,gyro_y,gyro_z,label
-0.9247746346626591,-1.31540378423171,-0.6508769102745312,0,0,0,1
-3.788042574662659,1.64154461576829,0.7838809197254688,0,0,0,1
-3.7884182746626593,1.63155871576829,0.7827515897254689,0,0,0,1
3.826859025337341,0.31956241576829014,-0.8030358802745312,0,0,0,1
3.826859025337341,0.31956241576829014,-0.8030358802745312,0,0,0,1
3.5326304253373406,-0.9021877442317099,-1.3102698802745312,0,0,0,1
-2.994914974662659,-1.01784058423171,-0.7150264802745312,0,0,0,1
-5.6417232746626595,0.6460783657682901,-0.05743375527453122,0,0,0,1
-3.380510774662659,1.31720811576829,1.2976789197254688,0,0,0,1
-0.0378212766626591,0.8967324657682901,1.219929919725469,0,0,0,1
-0.0378212766626591,0.8967324657682901,1.219929919725469,0,0,0,1
3.8639913253373406,-1.23560128423171,-0.8036014202745312,0,0,0,1
2.131831725337341,-1.87920558423171,-1.1311595802745311,0,0,0,1
2.131831725337341,-1.87920558423171,-1.1311595802745311,0,0,0,1
-1.250960774662659,-0.02364749823170987,-0.6954590402745312,0,0,0,1
-1.967217474662659,1.61467711576829,-0.5456387102745311,0,0,0,1
-1.967217474662659,1.61467711576829,-0.5456387102745311,0,0,0,1
1.146656525337341,-0.7359058842317099,-0.4412439802745312,0,0,0,1
0.9308886653373409,-0.7604785842317099,0.0012034457254687754,0,0,0,1
0.3057875753373409,-0.41665692423170986,0.9434714597254689,0,0,0,1
-0.8829130746626591,0.11630282176829013,1.2879099197254689,0,0,0,1
-0.8829130746626591,0.11630282176829013,1.2879099197254689,0,0,0,1
-0.8829130746626591,0.11630282176829013,1.2879099197254689,0,0,0,1
1.212783325337341,-0.9978645842317099,-0.31363467027453124,0,0,0,1
1.212783325337341,-0.9978645842317099,-0.31363467027453124,0,0,0,1
1.053860225337341,-0.7858930842317099,-0.6991464202745312,0,0,0,1
1.2262149253373409,-0.09323103423170986,-0.9371754202745312,0,0,0,1
-0.5241207746626592,1.16531891576829,-0.4129695002745312,0,0,0,1
-1.398643974662659,0.6939066157682902,-0.5969746402745312,0,0,0,1
-1.398643974662659,0.6939066157682902,-0.5969746402745312,0,0,0,1
-1.398643974662659,0.6939066157682902,-0.5969746402745312,0,0,0,1
-1.252235874662659,-0.6204297342317099,-0.23700145027453123,0,0,0,1
0.3868155653373409,0.7535649757682902,0.9630023497254688,0,0,0,1
2.9175296253373406,0.16715884576829013,0.8688826197254689,0,0,0,1
0.9472575253373409,-0.2665572842317099,-1.3739650802745311,0,0,0,1
-1.784358974662659,0.5918678157682902,-0.6666209802745312,0,0,0,1
-1.784358974662659,0.5918678157682902,-0.6666209802745312,0,0,0,1
3.317881125337341,-0.5275439442317098,-1.1067198802745313,0,0,0,1
4.4855267253373405,-1.31185108423171,-0.20166770027453124,0,0,0,1
5.154630225337341,-1.49138018423171,0.13269629972546876,0,0,0,1
3.6949611253373407,-1.09512498423171,-0.12382838027453123,0,0,0,1
0.1631398353373409,0.23599391576829012,-0.3561525102745312,0,0,0,1
-2.9382605746626593,1.2115405157682901,0.4484263897254688,0,0,0,1
-2.9575328746626592,1.7462535157682901,0.7106385497254688,0,0,0,1
-2.9575328746626592,1.7462535157682901,0.7106385497254688,0,0,0,1
-0.7983155046626591,0.40837671576829015,-0.2889164402745312,0,0,0,1
3.8683152253373407,-2.2788073842317096,-0.7393062802745312,0,0,0,1
3.6984420253373407,-1.9130331842317099,-0.4120806802745312,0,0,0,1
1.320215725337341,-0.29116011423170984,-0.10849842627453123,0,0,0,1
-1.958967174662659,0.8295785157682901,0.017205624725468775,0,0,0,1
-3.102520474662659,0.9458455157682901,0.5998228197254688,0,0,0,1
-1.942020374662659,-0.32280845423170984,0.09179821472546877,0,0,0,1
1.844951125337341,-0.6437109542317099,-1.766925080274531,0,0,0,1
1.844951125337341,-0.6437109542317099,-1.766925080274531,0,0,0,1
2.485902325337341,-0.8265596442317099,-0.5653184402745312,0,0,0,1
-0.9207520346626591,0.6940402157682901,0.17311336972546876,0,0,0,1
-0.9207520346626591,0.6940402157682901,0.17311336972546876,0,0,0,1
0.5154290253373409,-1.06594708423171,0.4623137397254688,0,0,0,1
0.2037825753373409,-0.02199186023170987,-0.49957726027453125,0,0,0,1
1.382127325337341,0.12690897576829013,-0.9717276802745312,0,0,0,1
1.382127325337341,0.12690897576829013,-0.9717276802745312,0,0,0,1
1.364717025337341,0.031190294768290126,-0.6115397802745312,0,0,0,1
-2.877471874662659,1.22997451576829,-0.7591952402745312,0,0,0,1
-2.877471874662659,1.22997451576829,-0.7591952402745312,0,0,0,1
-2.959973274662659,1.18037081576829,0.05818029972546878,0,0,0,1
0.6911521253373409,-0.9439724842317099,-0.09936270027453123,0,0,0,1
0.5513758853373409,-0.8217557442317098,-0.21775344027453122,0,0,0,1
1.491011125337341,-1.41895468423171,0.13487544972546878,0,0,0,1
-1.355482574662659,0.25950394576829017,0.49943241972546876,0,0,0,1
-2.9935998746626593,0.7314060157682901,0.31561633972546876,0,0,0,1
-1.773919074662659,-0.1494518042317099,0.04852077172546878,0,0,0,1
-0.7889666346626591,-0.9003257842317098,0.010668007725468776,0,0,0,1
0.8659138853373409,-0.9402362542317099,-0.7592361802745312,0,0,0,1
2.7099395253373406,-0.9972040842317098,-0.30409846027453125,0,0,0,1
2.3744627253373407,0.07976113576829014,-0.14396754027453124,0,0,0,1
0.7117352653373409,1.42782941576829,-0.16342393027453123,0,0,0,1
-0.4560217746626591,1.35538481576829,0.07863589972546876,0,0,0,1
-2.3448204746626593,0.35709516576829015,-0.6153472802745312,0,0,0,1
-2.3448204746626593,0.35709516576829015,-0.6153472802745312,0,0,0,1
-2.113585474662659,-0.5220658842317099,-0.9170930802745312,0,0,0,1
-0.4798302446626591,-0.7240354242317099,-0.7421120802745311,0,0,0,1
0.9136195253373409,0.26417924576829016,0.35393964972546876,0,0,0,1
0.9136195253373409,0.26417924576829016,0.35393964972546876,0,0,0,1
0.9136195253373409,0.26417924576829016,0.35393964972546876,0,0,0,1
0.035773770337340895,-0.21834911423170988,0.4412525597254688,0,0,0,1
-1.404052274662659,-1.03808548423171,0.07610728972546878,0,0,0,1
-1.331464274662659,-1.53657538423171,-0.24728796027453123,0,0,0,1
-1.331464274662659,-1.53657538423171,-0.24728796027453123,0,0,0,1
1.564229525337341,1.32187341576829,0.09584775372546878,0,0,0,1
1.564229525337341,1.32187341576829,0.09584775372546878,0,0,0,1
1.564229525337341,1.32187341576829,0.09584775372546878,0,0,0,1
2.436595425337341,0.49465509576829014,-0.008101852274531226,0,0,0,1
-2.263502574662659,-0.6015289242317099,-0.6621722302745312,0,0,0,1
-2.8870352746626593,-0.006734382231709871,0.3115696597254688,0,0,0,1
-2.8870352746626593,-0.006734382231709871,0.3115696597254688,0,0,0,1
-0.9377455746626591,1.60965071576829,0.9850199197254689,0,0,0,1
0.7261634253373409,1.81164051576829,0.22389312972546876,0,0,0,1
0.7261634253373409,1.81164051576829,0.22389312972546876,0,0,0,1
0.7261634253373409,1.81164051576829,0.22389312972546876,0,0,0,1
4.477212425337341,-0.7265257842317099,-0.9444713802745311,0,0,0,1
4.477212425337341,-0.7265257842317099,-0.9444713802745311,0,0,0,1
2.8575225253373406,-1.29727628423171,-0.8908739802745311,0,0,0,1
-0.0546631646626591,-0.7536475442317099,-1.0498291802745312,0,0,0,1
-0.0546631646626591,-0.7536475442317099,-1.0498291802745312,0,0,0,1
-3.976746074662659,0.8550818157682901,1.2967536197254688,0,0,0,1
-3.976746074662659,0.8550818157682901,1.2967536197254688,0,0,0,1
-1.410459074662659,0.6251347157682902,1.5525100197254689,0,0,0,1
3.9818435253373408,-0.24294371423170988,0.2830952697254688,0,0,0,1
3.9818435253373408,-0.24294371423170988,0.2830952697254688,0,0,0,1
4.618773025337341,-0.8795865842317099,0.15839072972546878,0,0,0,1
3.5095410253373407,-1.52782018423171,-1.242334080274531,0,0,0,1
1.871964925337341,-0.8771385842317099,-1.7181878802745312,0,0,0,1
-4.07756527466266,1.56963901576829,-0.20946613027453123,0,0,0,1
-4.07756527466266,1.56963901576829,-0.20946613027453123,0,0,0,1
-0.8847260346626591,-0.03451640423170987,-0.27416834027453124,0,0,0,1
-0.8847260346626591,-0.03451640423170987,-0.27416834027453124,0,0,0,1
3.5690027253373406,-1.71881228423171,0.5701125197254688,0,0,0,1
0.47397567533734086,0.8132376157682901,0.6935263597254688,0,0,0,1
0.47397567533734086,0.8132376157682901,0.6935263597254688,0,0,0,1
-0.8145565746626591,0.8789811157682902,1.0291477197254688,0,0,0,1
-1.974318474662659,0.44973983576829013,0.06396588572546877,0,0,0,1
-0.09468506466265911,0.29892294576829015,-0.9278725802745311,0,0,0,1
1.873842725337341,-0.40585528423170986,-1.2141327802745312,0,0,0,1
2.1534982253373407,0.28117157576829016,-1.1453394802745311,0,0,0,1
2.1534982253373407,0.28117157576829016,-1.1453394802745311,0,0,0,1
-2.811012774662659,0.8373099757682901,0.7117278197254688,0,0,0,1
1.648855725337341,-0.9623633442317099,0.018014578725468775,0,0,0,1
2.3581214253373406,-0.5378382842317099,0.15977635972546878,0,0,0,1
2.3581214253373406,-0.5378382842317099,0.15977635972546878,0,0,0,1
0.29939796533734087,0.31688298576829016,-0.7023723802745312,0,0,0,1
-2.108310274662659,0.05591349576829013,-0.44518338027453125,0,0,0,1
-2.108310274662659,0.05591349576829013,-0.44518338027453125,0,0,0,1
-2.2334990746626593,-0.34657658423170984,-0.23746678027453122,0,0,0,1
-2.2334990746626593,-0.34657658423170984,-0.23746678027453122,0,0,0,1
0.6861396253373409,0.3897816157682901,-0.4196646502745312,0,0,0,1
0.8093362253373408,0.3831028557682901,-0.35608760027453124,0,0,0,1
-1.450993974662659,0.18599097576829013,-0.18818137027453122,0,0,0,1
-1.450993974662659,0.18599097576829013,-0.18818137027453122,0,0,0,1
-0.8328938346626591,1.27708701576829,0.19136591972546876,0,0,0,1
-0.8328938346626591,1.27708701576829,0.19136591972546876,0,0,0,1
1.415947425337341,1.08595971576829,0.27048158972546876,0,0,0,1
1.564977225337341,1.25573091576829,-0.6121099302745312,0,0,0,1
1.372744125337341,-0.5057620242317099,-0.9992814402745311,0,0,0,1
0.06340553033734089,-1.47115808423171,-0.9389234502745312,0,0,0,1
-2.6146988746626594,-1.14637468423171,-1.2834613802745312,0,0,0,1
-1.216540774662659,-0.45399592423170987,0.9175575697254689,0,0,0,1
-0.04937027266265911,0.35185636576829016,1.4338901197254688,0,0,0,1
-0.04937027266265911,0.35185636576829016,1.4338901197254688,0,0,0,1
0.8035664753373409,0.8346019157682901,0.8059930197254688,0,0,0,1
2.1524557253373406,-0.33275143423170983,-0.5749498302745312,0,0,0,1
-0.18899963466265912,-0.6724600842317099,-0.8862320502745312,0,0,0,1
-2.757668474662659,-0.7520880842317098,-0.6055664802745312,0,0,0,1
-2.5624584746626593,0.30807568576829014,-0.5854756802745312,0,0,0,1
-0.23539493466265912,0.7939773157682901,-0.3762959602745312,0,0,0,1
-0.23539493466265912,0.7939773157682901,-0.3762959602745312,0,0,0,1
1.818750825337341,0.5070963157682902,-0.7830969402745311,0,0,0,1
1.818750825337341,0.5070963157682902,-0.7830969402745311,0,0,0,1
0.8517394253373409,-0.8197066842317099,-0.09485367027453123,0,0,0,1
-0.43497894466265913,-0.7025620842317098,1.0940235197254689,0,0,0,1
-0.43497894466265913,-0.7025620842317098,1.0940235197254689,0,0,0,1
-0.43497894466265913,-0.7025620842317098,1.0940235197254689,0,0,0,1
2.602185725337341,0.6636088157682901,0.36121516972546874,0,0,0,1
1.722621425337341,0.45475854576829017,-1.1050418802745312,0,0,0,1
0.1371197853373409,-0.5829302842317099,-1.8189630802745311,0,0,0,1
0.1371197853373409,-0.5829302842317099,-1.8189630802745311,0,0,0,1
0.2299809653373409,-1.23933098423171,-1.5568263802745312,0,0,0,1
-0.4351134146626591,-0.45887228423170984,-1.116998680274531,0,0,0,1
-1.692708474662659,1.77336341576829,0.3014703197254688,0,0,0,1
-1.692708474662659,1.77336341576829,0.3014703197254688,0,0,0,1
0.8897013853373409,0.8285620157682901,1.241439619725469,0,0,0,1
2.409930725337341,-0.7997479242317098,0.05166873172546878,0,0,0,1
2.409930725337341,-0.7997479242317098,0.05166873172546878,0,0,0,1
-0.6137165746626592,-1.60018348423171,0.19892122972546877,0,0,0,1
-2.6733674746626592,-1.14917948423171,0.032699195725468776,0,0,0,1
-0.6600565746626591,0.1857419657682901,-0.028717310274531227,0,0,0,1
1.875775825337341,0.5055389157682901,-0.6575249102745312,0,0,0,1
2.6406331253373407,0.7265308157682902,-0.6823969802745312,0,0,0,1
2.6406331253373407,0.7265308157682902,-0.6823969802745312,0,0,0,1
1.859106525337341,0.26359476576829016,-0.9343813802745312,0,0,0,1
1.266645925337341,-0.43167476423170986,-1.1896622802745311,0,0,0,1
0.16603328533734088,-1.20498528423171,-0.9407229102745311,0,0,0,1
0.16603328533734088,-1.20498528423171,-0.9407229102745311,0,0,0,1
-1.731025174662659,0.8210857157682901,-0.23011902027453124,0,0,0,1
-0.3700089246626591,0.8728643857682902,-0.40846112027453124,0,0,0,1
-0.3700089246626591,0.8728643857682902,-0.40846112027453124,0,0,0,1
0.9126887253373409,-0.06074742423170987,0.04662868272546878,0,0,0,1
0.9126887253373409,-0.06074742423170987,0.04662868272546878,0,0,0,1
