acc_x,acc_y,acc_z,gyro_x,gyro_y,gyro_z,label
-0.03491733866265911,0.22081475576829013,-0.17707208027453122,0,0,0,1
-0.6007380346626591,0.1916956157682901,-0.4169187802745312,0,0,0,1
-0.6007380346626591,0.1916956157682901,-0.4169187802745312,0,0,0,1
1.062305025337341,-0.1467571642317099,-0.3090714202745312,0,0,0,1
1.062305025337341,-0.1467571642317099,-0.3090714202745312,0,0,0,1
0.6237778853373409,0.2244320657682901,-0.11177075027453123,0,0,0,1
0.1433158053373409,0.06660004576829014,0.17700175972546878,0,0,0,1
-0.8231472746626591,-0.29833541423170984,0.30558371972546877,0,0,0,1
-0.8231472746626591,-0.29833541423170984,0.30558371972546877,0,0,0,1
-0.8231472746626591,-0.29833541423170984,0.30558371972546877,0,0,0,1
-0.5802597746626591,-0.26735193423170983,-0.04612586027453122,0,0,0,1
-0.5802597746626591,-0.26735193423170983,-0.04612586027453122,0,0,0,1
-0.3629517346626591,-0.06661806423170986,-0.6447179802745312,0,0,0,1
-1.500890274662659,-1.22631938423171,-1.1553216802745312,0,0,0,1
-1.500890274662659,-1.22631938423171,-1.1553216802745312,0,0,0,1
-2.2130274746626593,-1.6538656842317099,-0.7919546802745312,0,0,0,1
-1.604690974662659,-2.00078028423171,0.24661757972546877,0,0,0,1
-1.604690974662659,-2.00078028423171,0.24661757972546877,0,0,0,1
1.520422425337341,1.15391041576829,1.0773110197254687,0,0,0,1
2.758039025337341,1.96336321576829,0.9301998197254688,0,0,0,1
2.758039025337341,1.96336321576829,0.9301998197254688,0,0,0,1
0.7690892253373409,-0.1539573442317099,-0.3698171402745312,0,0,0,1
-1.553761974662659,-1.13824688423171,-0.7921694802745312,0,0,0,1
-2.9048432746626593,-1.11818048423171,-0.5307719802745312,0,0,0,1
-2.3154625746626594,-0.26599846423170986,-0.34080778027453124,0,0,0,1
-0.2091526846626591,0.4901656657682901,0.6691489197254689,0,0,0,1
2.316392425337341,1.15742141576829,1.6112264197254689,0,0,0,1
5.258068725337341,1.27053711576829,2.0783891197254687,0,0,0,1
4.838581725337341,2.16847851576829,1.8362426197254689,0,0,0,1
4.838581725337341,2.16847851576829,1.8362426197254689,0,0,0,1
1.494026725337341,2.60075091576829,-0.47588596027453123,0,0,0,1
-1.296974674662659,0.31493796576829014,-0.08875024427453122,0,0,0,1
-1.296974674662659,0.31493796576829014,-0.08875024427453122,0,0,0,1
-1.600394674662659,-1.50067878423171,1.495708119725469,0,0,0,1
-1.600394674662659,-1.50067878423171,1.495708119725469,0,0,0,1
3.878060725337341,2.36663291576829,1.564847419725469,0,0,0,1
3.878060725337341,2.36663291576829,1.564847419725469,0,0,0,1
3.878060725337341,2.36663291576829,1.564847419725469,0,0,0,1
6.0700402253373404,0.7757624557682902,0.8345732197254688,0,0,0,1
-3.981677074662659,-2.17343758423171,-1.7607357802745311,0,0,0,1
-3.981677074662659,-2.17343758423171,-1.7607357802745311,0,0,0,1
-6.079727674662659,-0.24720753423170988,-1.3321238802745312,0,0,0,1
-4.172717574662659,1.89497521576829,-0.22152028027453122,0,0,0,1
-0.6337494746626591,2.0405803157682905,0.7910553197254688,0,0,0,1
2.0264677253373407,1.16536801576829,-0.022374393274531227,0,0,0,1
4.03464942533734,1.16636041576829,0.07654919972546877,0,0,0,1
4.03464942533734,1.16636041576829,0.07654919972546877,0,0,0,1
4.621333725337341,0.18427540576829013,-0.9806707202745312,0,0,0,1
4.621333725337341,0.18427540576829013,-0.9806707202745312,0,0,0,1
-0.38249824466265914,1.06274201576829,-1.7986574802745312,0,0,0,1
-4.204103974662659,1.58289101576829,-0.9927463802745312,0,0,0,1
-4.204103974662659,1.58289101576829,-0.9927463802745312,0,0,0,1
-0.6895422746626592,1.51113491576829,0.7239784897254689,0,0,0,1
1.951365025337341,0.7635017857682902,0.7422266897254688,0,0,0,1
1.951365025337341,0.7635017857682902,0.7422266897254688,0,0,0,1
1.951365025337341,0.7635017857682902,0.7422266897254688,0,0,0,1
3.293018725337341,-1.04563618423171,0.7050585197254688,0,0,0,1
3.293018725337341,-1.04563618423171,0.7050585197254688,0,0,0,1
-2.099630274662659,0.9548170157682901,0.5858068797254689,0,0,0,1
-0.6639160746626591,1.26977901576829,-0.21526036027453124,0,0,0,1
-0.6639160746626591,1.26977901576829,-0.21526036027453124,0,0,0,1
1.029201025337341,0.2278523957682901,-0.5165589202745312,0,0,0,1
1.029201025337341,0.2278523957682901,-0.5165589202745312,0,0,0,1
1.380685325337341,-0.33503548423170987,-1.0332636802745312,0,0,0,1
1.380685325337341,-0.33503548423170987,-1.0332636802745312,0,0,0,1
-0.4724182946626591,0.06807361576829013,0.7357318197254689,0,0,0,1
-0.4724182946626591,0.06807361576829013,0.7357318197254689,0,0,0,1
-0.9129309746626592,0.9253095157682901,1.0147926197254689,0,0,0,1
-0.9129309746626592,0.9253095157682901,1.0147926197254689,0,0,0,1
0.47919418533734087,0.6183916557682901,0.7895953197254688,0,0,0,1
1.267243925337341,0.35517089576829014,-0.0032609716745312257,0,0,0,1
1.114396625337341,0.21527466576829013,-0.6143912402745312,0,0,0,1
0.5554833553373408,-0.05407364423170987,-1.0976203802745312,0,0,0,1
-2.096573774662659,0.5242777657682901,-0.9378333402745311,0,0,0,1
-2.096573774662659,0.5242777657682901,-0.9378333402745311,0,0,0,1
-2.469477274662659,1.1564548157682901,-0.7293294802745312,0,0,0,1
-0.9835314746626591,1.51124361576829,0.27882196972546874,0,0,0,1
0.7931332753373409,1.69416541576829,0.7898230197254689,0,0,0,1
0.7931332753373409,1.69416541576829,0.7898230197254689,0,0,0,1
1.004231925337341,-1.26189168423171,-0.4825296402745312,0,0,0,1
-1.917619674662659,0.15154804576829012,-0.8227720802745312,0,0,0,1
-3.364707474662659,1.98468461576829,0.5280030697254688,0,0,0,1
-2.214219574662659,2.1453540157682904,0.8338634697254689,0,0,0,1
1.056153825337341,-2.3267278842317096,-0.09704795627453124,0,0,0,1
4.193058725337341,-3.8777274842317095,-0.7297824302745312,0,0,0,1
2.656567125337341,-0.5362270242317099,-0.5593382802745311,0,0,0,1
-4.631576974662659,4.43418691576829,0.2468439597254688,0,0,0,1
-4.631576974662659,4.43418691576829,0.2468439597254688,0,0,0,1
-4.619680874662659,3.3241863157682903,1.1596751197254689,0,0,0,1
-4.619680874662659,3.3241863157682903,1.1596751197254689,0,0,0,1
-1.785519074662659,-1.62672158423171,-0.8379351202745312,0,0,0,1
-1.785519074662659,-1.62672158423171,-0.8379351202745312,0,0,0,1
4.740916725337341,0.08526619076829013,-0.9081808802745311,0,0,0,1
4.643244325337341,2.09369091576829,-0.058145107274531226,0,0,0,1
0.6697240253373409,3.0901160157682903,-0.5411153802745312,0,0,0,1
0.6697240253373409,3.0901160157682903,-0.5411153802745312,0,0,0,1
-3.4419164746626594,-0.25133014423170985,0.4299105197254688,0,0,0,1
-3.3803162746626594,-1.27242918423171,0.0029213562254687747,0,0,0,1
-1.433549374662659,-0.26537508423170986,0.09508262972546877,0,0,0,1
3.002857725337341,1.86103841576829,0.4649229197254688,0,0,0,1
6.023886225337341,1.9529712157682901,0.7634721697254688,0,0,0,1
4.28743972533734,-0.28432322423170986,-0.10133106027453123,0,0,0,1
2.6649585253373407,-6.1190986842317105,-2.0284481802745313,0,0,0,1
2.6649585253373407,-6.1190986842317105,-2.0284481802745313,0,0,0,1
-2.518351074662659,-1.64794588423171,0.7181737697254689,0,0,0,1
-2.518351074662659,-1.64794588423171,0.7181737697254689,0,0,0,1
-3.3059772746626592,4.90797991576829,2.427119719725469,0,0,0,1
-3.3059772746626592,4.90797991576829,2.427119719725469,0,0,0,1
-0.3357834746626591,-1.89958058423171,0.5164761197254688,0,0,0,1
-0.3357834746626591,-1.89958058423171,0.5164761197254688,0,0,0,1
2.716436925337341,-4.66105938423171,0.20969172972546876,0,0,0,1
2.716436925337341,-4.66105938423171,0.20969172972546876,0,0,0,1
2.716436925337341,-4.66105938423171,0.20969172972546876,0,0,0,1
3.213643525337341,-1.43332868423171,-0.5786670802745312,0,0,0,1
2.548152425337341,1.24826101576829,-0.15703377027453122,0,0,0,1
2.548152425337341,1.24826101576829,-0.15703377027453122,0,0,0,1
0.6809134653373409,-0.8424122142317099,-0.5502308802745312,0,0,0,1
-1.349794874662659,-1.38122268423171,-0.7165692202745312,0,0,0,1
-1.244986974662659,-0.9288440142317098,-0.48115003027453124,0,0,0,1
-0.2022662046626591,0.47109447576829017,-0.5271932202745312,0,0,0,1
0.13567782533734088,1.24741321576829,-0.47257230027453123,0,0,0,1
0.13567782533734088,1.24741321576829,-0.47257230027453123,0,0,0,1
1.046931725337341,0.7939563157682902,-0.8375556802745312,0,0,0,1
2.127342725337341,-1.07514368423171,-0.6904921802745312,0,0,0,1
2.149597725337341,-1.40403368423171,-1.2995541802745312,0,0,0,1
1.981277925337341,-0.2104615642317099,-1.4107566802745313,0,0,0,1
3.0294547253373407,0.9634398157682902,-1.2429225802745312,0,0,0,1
3.0294547253373407,0.9634398157682902,-1.2429225802745312,0,0,0,1
0.18378020533734088,0.18592696576829013,-1.175131680274531,0,0,0,1
0.18378020533734088,0.18592696576829013,-1.175131680274531,0,0,0,1
-2.5316376746626594,-1.33041058423171,-1.134560580274531,0,0,0,1
-1.612818274662659,-1.37597428423171,0.6867180197254689,0,0,0,1
0.6507315753373409,2.10300291576829,1.631140919725469,0,0,0,1
3.0766711253373407,0.9368046657682901,1.1865363197254688,0,0,0,1
3.0766711253373407,0.9368046657682901,1.1865363197254688,0,0,0,1
3.0766711253373407,0.9368046657682901,1.1865363197254688,0,0,0,1
3.698894025337341,-0.5201593442317098,0.14466219972546876,0,0,0,1
2.1154647253373406,-1.11931168423171,-1.3035130802745312,0,0,0,1
-1.006860274662659,0.6688528157682901,-1.5445628802745313,0,0,0,1
-1.006860274662659,0.6688528157682901,-1.5445628802745313,0,0,0,1
-2.9580812746626592,2.50533651576829,-0.6437700102745312,0,0,0,1
-1.104569874662659,1.3784214157682901,-0.14010060027453122,0,0,0,1
0.5647578253373409,0.20162781576829011,0.31944581972546876,0,0,0,1
-0.6318497746626591,0.20958958576829012,1.2916343197254687,0,0,0,1
-1.779797074662659,0.44393377576829013,1.0263807197254688,0,0,0,1
-0.9864821246626592,-0.03916276623170987,-0.40248460027453126,0,0,0,1
-0.9864821246626592,-0.03916276623170987,-0.40248460027453126,0,0,0,1
0.7065453653373409,-0.5274004842317098,-1.2083420802745313,0,0,0,1
1.470281125337341,0.19654041576829012,-1.6932687802745312,0,0,0,1
1.470281125337341,0.19654041576829012,-1.6932687802745312,0,0,0,1
0.6477303653373409,0.6441348157682901,-1.073899280274531,0,0,0,1
0.6477303653373409,0.6441348157682901,-1.073899280274531,0,0,0,1
-1.995153374662659,1.25075871576829,0.4298346897254688,0,0,0,1
-2.295496874662659,0.9299137757682902,0.7396971897254688,0,0,0,1
-1.636506574662659,0.24728977576829012,0.8339803197254688,0,0,0,1
-0.7256340746626591,-0.03783882823170987,0.7675926197254688,0,0,0,1
-0.03368137666265911,0.16459162576829012,0.6657180197254688,0,0,0,1
0.14104510533734088,0.44981463576829017,0.37414755972546876,0,0,0,1
-0.2662234146626591,0.6516673157682902,0.11572679972546877,0,0,0,1
-0.7754435346626591,0.7880211157682901,-0.43504393027453125,0,0,0,1
-1.030801274662659,0.7172021157682902,-0.9137668802745311,0,0,0,1
-1.410552474662659,0.27916638576829017,-1.2982789802745311,0,0,0,1
-2.184247974662659,0.19049179576829012,-0.8422042402745312,0,0,0,1
-2.184247974662659,0.19049179576829012,-0.8422042402745312,0,0,0,1
-2.354796874662659,0.5252574157682901,-0.014592649274531225,0,0,0,1
-2.354796874662659,0.5252574157682901,-0.014592649274531225,0,0,0,1
1.451604425337341,1.41736051576829,1.2124226197254688,0,0,0,1
2.5354609253373406,0.9789963157682902,0.9668825597254688,0,0,0,1
1.945086025337341,0.6425403157682902,-0.2726937202745312,0,0,0,1
1.945086025337341,0.6425403157682902,-0.2726937202745312,0,0,0,1
-0.1809515746626591,-0.4587249842317099,-0.6698794802745311,0,0,0,1
-3.0950532746626593,-1.3103438842317099,-0.9490556802745311,0,0,0,1
-3.424092274662659,-0.7589553442317098,1.3894950197254687,0,0,0,1
0.2463250253373409,0.9152372657682901,2.1963918197254686,0,0,0,1
0.2463250253373409,0.9152372657682901,2.1963918197254686,0,0,0,1
0.2463250253373409,0.9152372657682901,2.1963918197254686,0,0,0,1
-9.479897274662658,2.43918871576829,0.16316335972546878,0,0,0,1
-8.411498274662659,3.96711791576829,0.7475966197254689,0,0,0,1
-8.411498274662659,3.96711791576829,0.7475966197254689,0,0,0,1
-3.554299274662659,3.35241411576829,3.1434488197254686,0,0,0,1
6.837362725337341,0.23236371576829012,1.7543450197254689,0,0,0,1
9.726960725337342,-0.46741238423170983,0.7758342197254688,0,0,0,1
9.726960725337342,-0.46741238423170983,0.7758342197254688,0,0,0,1
-0.4090361446626591,-2.8242275842317097,-1.6158565802745313,0,0,0,1
-0.4090361446626591,-2.8242275842317097,-1.6158565802745313,0,0,0,1
-7.949754274662659,-1.71212058423171,0.9633943197254689,0,0,0,1
-5.014880674662659,0.3670188657682901,2.8520088197254685,0,0,0,1
6.177672725337341,0.1857516157682901,1.162981519725469,0,0,0,1
6.177672725337341,0.1857516157682901,1.162981519725469,0,0,0,1
7.5324492253373405,-0.5891803342317099,0.45653107972546875,0,0,0,1
7.5324492253373405,-0.5891803342317099,0.45653107972546875,0,0,0,1
9.489786725337341,-4.55056238423171,-2.294507980274531,0,0,0,1
9.489786725337341,-4.55056238423171,-2.294507980274531,0,0,0,1
