acc_x,acc_y,acc_z,gyro_x,gyro_y,gyro_z,label
-2.5672955746626593,1.27257421576829,0.13992162972546876,0,0,0,1
-1.440369074662659,1.26329761576829,0.31024309972546876,0,0,0,1
3.957195725337341,-1.0098510842317099,-0.10616150627453123,0,0,0,1
3.957195725337341,-1.0098510842317099,-0.10616150627453123,0,0,0,1
3.957195725337341,-1.0098510842317099,-0.10616150627453123,0,0,0,1
0.3260426653373409,0.06205918276829013,-1.2805390802745311,0,0,0,1
-4.5077192746626595,-0.5627354242317099,-0.09920743027453123,0,0,0,1
-4.5077192746626595,-0.5627354242317099,-0.09920743027453123,0,0,0,1
-5.494130274662659,0.32911291576829016,0.17044242972546877,0,0,0,1
-3.351881974662659,1.44197681576829,1.300830319725469,0,0,0,1
0.2865309853373409,1.56535391576829,0.8562105597254688,0,0,0,1
4.292289225337341,0.48424913576829015,-0.007276804774531225,0,0,0,1
5.570015425337341,-1.30792548423171,-0.6614583802745312,0,0,0,1
4.636045725337341,-2.00503488423171,-1.2415626802745312,0,0,0,1
4.636045725337341,-2.00503488423171,-1.2415626802745312,0,0,0,1
-0.8386826346626591,-0.10524530423170987,-1.1490146802745311,0,0,0,1
-0.8386826346626591,-0.10524530423170987,-1.1490146802745311,0,0,0,1
-5.477909274662659,2.18067991576829,0.4208194897254688,0,0,0,1
-2.467224574662659,0.8126253157682901,1.040911319725469,0,0,0,1
0.8270535653373409,-0.41541778423170983,-0.07671633527453123,0,0,0,1
0.8270535653373409,-0.41541778423170983,-0.07671633527453123,0,0,0,1
0.1651444553373409,0.49213811576829014,0.5223801197254688,0,0,0,1
0.1651444553373409,0.49213811576829014,0.5223801197254688,0,0,0,1
0.1651444553373409,0.49213811576829014,0.5223801197254688,0,0,0,1
-3.425969574662659,1.71632221576829,0.9071784897254688,0,0,0,1
-0.4365877946626591,0.32674823576829015,-0.034376414274531225,0,0,0,1
2.111193225337341,-0.7067060242317098,-1.0001864802745313,0,0,0,1
2.111193225337341,-0.7067060242317098,-1.0001864802745313,0,0,0,1
3.941516425337341,-0.7430518842317099,-0.6114999402745311,0,0,0,1
1.378601525337341,0.33724744576829013,-1.6103870802745313,0,0,0,1
1.378601525337341,0.33724744576829013,-1.6103870802745313,0,0,0,1
-2.3251018746626593,0.6585120157682901,-0.03476920827453123,0,0,0,1
2.773294925337341,-0.6084774842317099,0.33198615972546874,0,0,0,1
2.5959677253373408,-0.08942229423170987,-0.09924784427453123,0,0,0,1
1.626228825337341,0.5005552357682901,0.26732393972546875,0,0,0,1
0.6865878253373409,0.25889431576829014,-0.08958808027453123,0,0,0,1
-2.807314874662659,1.00695281576829,-1.049626680274531,0,0,0,1
-1.370045174662659,0.7073055657682902,-0.8988632302745312,0,0,0,1
0.7696118253373408,-0.19145497423170987,-0.6621523202745312,0,0,0,1
0.7696118253373408,-0.19145497423170987,-0.6621523202745312,0,0,0,1
-0.0627627216626591,-0.43687380423170985,-0.0038562134745312253,0,0,0,1
-0.6742329446626592,-0.38851104423170985,0.8710433497254688,0,0,0,1
2.188249125337341,0.05009314576829013,-0.2795622802745312,0,0,0,1
2.188249125337341,0.05009314576829013,-0.2795622802745312,0,0,0,1
1.456357525337341,0.41433708576829015,-1.0903649802745312,0,0,0,1
1.456357525337341,0.41433708576829015,-1.0903649802745312,0,0,0,1
-1.781205174662659,0.11671285576829013,-0.8641555802745312,0,0,0,1
-1.783320374662659,0.11028106576829012,-0.8785177802745312,0,0,0,1
-1.783320374662659,0.11028106576829012,-0.8785177802745312,0,0,0,1
-1.783320374662659,0.11028106576829012,-0.8785177802745312,0,0,0,1
2.744319425337341,0.6632259157682902,0.8105973197254688,0,0,0,1
2.6715236253373407,-0.40220050423170983,-0.5481379302745312,0,0,0,1
2.6715236253373407,-0.40220050423170983,-0.5481379302745312,0,0,0,1
0.17286540533734088,-2.04249638423171,-1.1438164802745312,0,0,0,1
0.17286540533734088,-2.04249638423171,-1.1438164802745312,0,0,0,1
-5.126896874662659,-1.84836338423171,-2.0460851802745315,0,0,0,1
-5.126896874662659,-1.84836338423171,-2.0460851802745315,0,0,0,1
-3.7432612746626592,-0.9544875442317099,-0.028552206274531228,0,0,0,1
0.9257931853373409,0.9429111657682901,1.2446715197254687,0,0,0,1
4.80358572533734,1.18323271576829,2.1313981197254686,0,0,0,1
6.963912725337341,0.5701046157682902,0.5380260597254688,0,0,0,1
1.116861825337341,-0.8828498842317098,-3.475508280274531,0,0,0,1
-3.855819274662659,-2.5028620842317095,-4.6338303802745315,0,0,0,1
-3.855819274662659,-2.5028620842317095,-4.6338303802745315,0,0,0,1
-6.522623474662659,-1.2267440842317099,-1.0474849802745312,0,0,0,1
-4.126596274662659,2.70503401576829,3.658546219725469,0,0,0,1
1.868738725337341,1.55353841576829,1.9279956197254688,0,0,0,1
5.669395025337341,-1.65724338423171,0.03240987472546878,0,0,0,1
5.669395025337341,-1.65724338423171,0.03240987472546878,0,0,0,1
5.669395025337341,-1.65724338423171,0.03240987472546878,0,0,0,1
3.1203637253373406,-0.6899522342317098,-0.6164690802745312,0,0,0,1
-4.165204074662659,4.14575591576829,-0.9118309302745312,0,0,0,1
-4.165204074662659,4.14575591576829,-0.9118309302745312,0,0,0,1
-4.7999267746626595,3.96266171576829,-1.8367474802745312,0,0,0,1
-0.5833735346626591,-2.6738075842317097,-2.6133439802745313,0,0,0,1
0.25741149533734087,-4.09462308423171,-0.3986095502745312,0,0,0,1
0.25741149533734087,-4.09462308423171,-0.3986095502745312,0,0,0,1
2.6332307253373406,1.51097001576829,3.9305543197254686,0,0,0,1
2.1901183253373406,2.8647461157682903,2.428798319725469,0,0,0,1
2.1901183253373406,2.8647461157682903,2.428798319725469,0,0,0,1
1.628209625337341,2.0797164157682904,1.1139800197254688,0,0,0,1
-0.10436580966265911,-0.08576729423170987,-0.9419974402745311,0,0,0,1
-2.235787274662659,-2.55135608423171,-3.5825612802745312,0,0,0,1
-3.8124594746626594,-2.71350608423171,-5.493297680274531,0,0,0,1
-0.9921374146626591,-0.1442463542317099,0.24239762972546874,0,0,0,1
0.5478587253373409,1.14310121576829,0.9710906197254688,0,0,0,1
2.514730025337341,1.78731701576829,1.1674995197254687,0,0,0,1
4.333402125337341,0.6732902157682902,1.4482148197254687,0,0,0,1
4.333402125337341,0.6732902157682902,1.4482148197254687,0,0,0,1
0.2653498853373409,-3.1541633842317096,-0.9879040802745311,0,0,0,1
-3.3772754746626594,-3.3920425842317097,-0.5888872502745311,0,0,0,1
-3.436092274662659,2.54250391576829,1.080648119725469,0,0,0,1
-3.436092274662659,2.54250391576829,1.080648119725469,0,0,0,1
-0.3301205446626591,3.8679562157682903,1.2541028197254689,0,0,0,1
2.0724120253373406,3.0601931157682905,-0.4545190602745312,0,0,0,1
2.0724120253373406,3.0601931157682905,-0.4545190602745312,0,0,0,1
4.679024225337341,-1.99603678423171,-1.996351180274531,0,0,0,1
4.679024225337341,-1.99603678423171,-1.996351180274531,0,0,0,1
-1.467351374662659,-2.8603808842317098,-1.0920583802745312,0,0,0,1
-4.631009274662659,-0.44068841423170985,0.39393021972546877,0,0,0,1
-4.706321274662659,2.2525210157682904,2.2135341197254688,0,0,0,1
-1.819703574662659,2.56040221576829,2.606840319725469,0,0,0,1
1.022675025337341,1.87708531576829,1.4393769197254689,0,0,0,1
2.829324225337341,-0.41829971423170986,0.16565748972546876,0,0,0,1
3.142571025337341,-2.5220105842317095,-2.1998086802745314,0,0,0,1
0.13345386533734088,-0.9458018342317098,-2.7048673802745316,0,0,0,1
0.13345386533734088,-0.9458018342317098,-2.7048673802745316,0,0,0,1
-1.424631574662659,2.0433539157682903,0.7409636197254689,0,0,0,1
-1.424631574662659,2.0433539157682903,0.7409636197254689,0,0,0,1
1.843360425337341,0.3270247157682901,0.4216575897254688,0,0,0,1
1.843360425337341,0.3270247157682901,0.4216575897254688,0,0,0,1
2.819732225337341,-0.7674244442317099,0.061477509725468775,0,0,0,1
2.334903225337341,-1.97770678423171,0.27538689972546876,0,0,0,1
-3.1234402746626593,0.44826393576829016,0.37438275972546875,0,0,0,1
-3.2082399746626593,0.6710950157682901,-0.33397428027453124,0,0,0,1
-1.122830874662659,0.41094716576829016,0.19481202972546877,0,0,0,1
-1.122830874662659,0.41094716576829016,0.19481202972546877,0,0,0,1
1.322538825337341,0.12370373576829014,-0.22701791027453122,0,0,0,1
3.386453125337341,-0.5586919842317098,-0.5702492302745312,0,0,0,1
3.386453125337341,-0.5586919842317098,-0.5702492302745312,0,0,0,1
-0.4964632746626591,-0.2027628542317099,-0.04551330327453122,0,0,0,1
-0.4964632746626591,-0.2027628542317099,-0.04551330327453122,0,0,0,1
0.10295058533734089,0.41764928576829013,0.5151048597254688,0,0,0,1
2.5043139253373408,0.23507096576829012,-0.048190386274531226,0,0,0,1
0.4715342653373409,-1.0758965842317099,-1.260571380274531,0,0,0,1
0.4715342653373409,-1.0758965842317099,-1.260571380274531,0,0,0,1
-2.258416674662659,-0.1805676642317099,-0.5915537202745311,0,0,0,1
-0.5646061746626592,1.63189481576829,0.6470601197254688,0,0,0,1
0.5319009253373409,1.14009961576829,-0.04477969027453122,0,0,0,1
1.896672725337341,-1.55326008423171,-0.8598125302745312,0,0,0,1
1.865142325337341,-2.74636268423171,-0.5499419302745312,0,0,0,1
-0.2058386646626591,-0.8022826842317099,0.11470552972546877,0,0,0,1
-0.2058386646626591,-0.8022826842317099,0.11470552972546877,0,0,0,1
0.18231536533734088,0.09626891076829013,-0.10335174027453123,0,0,0,1
0.18231536533734088,0.09626891076829013,-0.10335174027453123,0,0,0,1
3.4389233253373406,-0.6621210342317099,-0.8645687402745311,0,0,0,1
-0.3014149546626591,0.26222636576829017,-0.8605014402745311,0,0,0,1
-1.521390374662659,0.5276174157682901,-0.27641586027453124,0,0,0,1
-1.521390374662659,0.5276174157682901,-0.27641586027453124,0,0,0,1
-1.521390374662659,0.5276174157682901,-0.27641586027453124,0,0,0,1
-1.399691074662659,0.42696041576829014,0.5677845797254688,0,0,0,1
-1.136498874662659,0.35763319576829017,0.3111926597254688,0,0,0,1
-1.136498874662659,0.35763319576829017,0.3111926597254688,0,0,0,1
1.000304725337341,-0.1525597042317099,0.5638411197254688,0,0,0,1
1.151795925337341,-0.6245512142317099,-0.15207520027453122,0,0,0,1
-0.022866709662659104,-0.5571646542317099,-0.09550801027453124,0,0,0,1
-0.022866709662659104,-0.5571646542317099,-0.09550801027453124,0,0,0,1
-0.13440178466265912,-0.7844419342317098,0.08794936372546877,0,0,0,1
-0.9783472746626591,1.49554591576829,-0.19333866027453123,0,0,0,1
-0.9783472746626591,1.49554591576829,-0.19333866027453123,0,0,0,1
0.5109029253373409,1.2688011157682901,-0.04025438627453122,0,0,0,1
1.285996025337341,-0.5450170442317098,-0.10082892027453123,0,0,0,1
-0.4716257746626591,-0.5451489542317098,0.09112688972546877,0,0,0,1
0.1265626153373409,0.17301459576829012,0.16602286972546876,0,0,0,1
0.2685046253373409,0.7108674157682902,0.47743006972546875,0,0,0,1
-0.7521919746626591,0.42471529576829015,0.17982598972546876,0,0,0,1
0.8244528953373409,-0.7667694842317099,0.43119003972546877,0,0,0,1
1.053631325337341,-0.5495441842317098,-0.34955528027453125,0,0,0,1
1.053631325337341,-0.5495441842317098,-0.34955528027453125,0,0,0,1
0.7110152253373409,-0.11687902423170987,-0.27706984027453124,0,0,0,1
-0.4253229946626591,-0.1397318042317099,-0.10302857027453123,0,0,0,1
-0.4253229946626591,-0.1397318042317099,-0.10302857027453123,0,0,0,1
1.529307825337341,0.5769744657682901,0.33326657972546875,0,0,0,1
1.746641625337341,0.04255368176829013,0.24870081972546876,0,0,0,1
0.4654984653373409,-0.12856833423170988,0.08751829972546878,0,0,0,1
0.08985950533734088,-0.5748487542317099,0.13034531972546878,0,0,0,1
-0.4664091946626591,-1.50055488423171,-0.19007984027453123,0,0,0,1
-1.755101674662659,-0.38674781423170984,0.32780095972546874,0,0,0,1
-2.2195968746626593,0.49703468576829013,0.07173451972546876,0,0,0,1
0.4018035053373409,1.1434288157682901,0.5459097197254689,0,0,0,1
1.781590025337341,0.5511947157682902,-0.39003398027453123,0,0,0,1
1.781590025337341,0.5511947157682902,-0.39003398027453123,0,0,0,1
1.732410925337341,0.15017205576829012,-0.6032041802745312,0,0,0,1
1.732410925337341,0.15017205576829012,-0.6032041802745312,0,0,0,1
-3.1668676746626594,0.8772206157682901,-0.19405785027453124,0,0,0,1
-1.932204274662659,0.40292869576829016,0.29741986972546874,0,0,0,1
0.13129092533734088,-0.37043760423170985,0.7730558797254689,0,0,0,1
0.3287606253373409,-0.39370016423170984,-0.08624187027453123,0,0,0,1
1.161485225337341,-0.45452608423170987,0.07074459972546877,0,0,0,1
2.580753725337341,-0.9094282242317099,0.41843553972546876,0,0,0,1
