acc_x,acc_y,acc_z,gyro_x,gyro_y,gyro_z,label
0.5575051253373409,-0.16891143423170987,0.26905413972546877,0,0,0,1
0.5575051253373409,-0.16891143423170987,0.26905413972546877,0,0,0,1
-0.5172323746626591,-0.04398156423170987,0.43055873972546876,0,0,0,1
0.002040402337340894,0.11385543976829013,-0.21840033027453123,0,0,0,1
1.801165125337341,-0.25998224423170985,-0.36749838027453124,0,0,0,1
1.801165125337341,-0.25998224423170985,-0.36749838027453124,0,0,0,1
-0.18072937466265912,-0.8303190242317099,-1.0065058202745312,0,0,0,1
-0.18072937466265912,-0.8303190242317099,-1.0065058202745312,0,0,0,1
0.0748334093373409,-0.35372031423170985,-0.08236215027453123,0,0,0,1
-0.9952378146626591,0.6879182157682902,0.24531587972546876,0,0,0,1
-0.9952378146626591,0.6879182157682902,0.24531587972546876,0,0,0,1
0.4875855653373409,0.33086911576829015,0.9743774797254688,0,0,0,1
1.242310025337341,-0.37981800423170986,0.04062559972546878,0,0,0,1
1.242310025337341,-0.37981800423170986,0.04062559972546878,0,0,0,1
1.559877925337341,1.26661421576829,-0.3427842002745312,0,0,0,1
-0.7087340146626591,1.53977371576829,-0.36857560027453123,0,0,0,1
-0.7087340146626591,1.53977371576829,-0.36857560027453123,0,0,0,1
-3.1224942746626594,0.40715243576829013,-1.0018676802745312,0,0,0,1
-0.6972107746626591,-2.40269088423171,0.051726846725468775,0,0,0,1
-0.6972107746626591,-2.40269088423171,0.051726846725468775,0,0,0,1
0.4937453453373409,-0.40998990423170983,0.2546150397254688,0,0,0,1
0.4937453453373409,-0.40998990423170983,0.2546150397254688,0,0,0,1
3.3639731253373406,2.66639731576829,1.2514943197254689,0,0,0,1
3.3639731253373406,2.66639731576829,1.2514943197254689,0,0,0,1
2.6864027253373406,1.85416821576829,0.24701651972546879,0,0,0,1
-1.948764274662659,-2.6142658842317097,-1.5762180802745311,0,0,0,1
-1.789132574662659,0.43911935576829014,0.27013411972546875,0,0,0,1
-1.789132574662659,0.43911935576829014,0.27013411972546875,0,0,0,1
1.261293925337341,0.5504693157682902,0.8236531897254689,0,0,0,1
1.261293925337341,0.5504693157682902,0.8236531897254689,0,0,0,1
0.9227280753373409,-0.3820836342317099,0.028663365725468775,0,0,0,1
0.9227280753373409,-0.3820836342317099,0.028663365725468775,0,0,0,1
0.9227280753373409,-0.3820836342317099,0.028663365725468775,0,0,0,1
-2.3151497746626593,-0.48787100423170987,-0.4330829102745312,0,0,0,1
3.064746425337341,0.47797166576829014,-1.3032503802745312,0,0,0,1
-0.3326401546626591,-2.5626828842317098,-0.025456280274531225,0,0,0,1
-0.3326401546626591,-2.5626828842317098,-0.025456280274531225,0,0,0,1
-3.8615560746626594,-1.06455918423171,0.7985439197254688,0,0,0,1
-1.170620474662659,2.87348751576829,1.7383136197254687,0,0,0,1
2.7401223253373406,-0.38232035423170985,-0.8084467802745312,0,0,0,1
2.1652369253373407,-2.80143608423171,-1.8137890802745311,0,0,0,1
1.062767525337341,-3.36662028423171,-1.7700662802745313,0,0,0,1
-1.345603474662659,-1.35974158423171,-0.8305413802745312,0,0,0,1
-2.392230474662659,3.0185759157682903,1.0301396197254689,0,0,0,1
0.4240718053373409,2.2780583157682903,0.9890346797254689,0,0,0,1
2.054254025337341,0.7015556157682902,-0.027785928274531226,0,0,0,1
2.4762692253373406,-0.5486761842317098,-0.2901816102745312,0,0,0,1
2.4762692253373406,-0.5486761842317098,-0.2901816102745312,0,0,0,1
1.863694725337341,-0.9678271242317098,-0.7730022802745312,0,0,0,1
-1.791404274662659,1.0398214157682901,-0.08843383027453124,0,0,0,1
-1.026279874662659,0.11567855576829013,-0.3720921002745312,0,0,0,1
1.935166825337341,-0.9002856842317098,-0.07802591027453123,0,0,0,1
1.935166825337341,-0.9002856842317098,-0.07802591027453123,0,0,0,1
1.935166825337341,-0.9002856842317098,-0.07802591027453123,0,0,0,1
0.8849063253373409,0.10967463576829013,0.5521396197254689,0,0,0,1
-2.622570474662659,1.19084111576829,0.5555689597254688,0,0,0,1
-0.7501625746626591,1.28772321576829,0.6594311897254689,0,0,0,1
-0.7501625746626591,1.28772321576829,0.6594311897254689,0,0,0,1
1.159413825337341,1.50477311576829,0.5886792197254688,0,0,0,1
0.1595969353373409,0.27351141576829013,-1.1107515802745311,0,0,0,1
0.22416068533734088,-0.6160981442317098,-0.5458119802745311,0,0,0,1
0.49889612533734085,0.2369168557682901,-0.19820449027453124,0,0,0,1
0.49889612533734085,0.2369168557682901,-0.19820449027453124,0,0,0,1
0.4496236053373409,1.70393301576829,0.19283249972546876,0,0,0,1
0.7501282853373409,1.69743171576829,0.16344859972546877,0,0,0,1
-0.9839062746626591,-0.20950297423170988,-0.4199971302745312,0,0,0,1
-1.894503574662659,-1.93566968423171,-0.6690739102745312,0,0,0,1
-1.894503574662659,-1.93566968423171,-0.6690739102745312,0,0,0,1
-0.8140234746626591,-2.66022658423171,0.07203635372546877,0,0,0,1
0.5580086853373409,-1.28657718423171,0.29454251972546874,0,0,0,1
2.5982537253373406,1.39144191576829,0.3122593997254688,0,0,0,1
0.3004508253373409,-0.7256439842317098,-0.4955855302745312,0,0,0,1
0.3004508253373409,-0.7256439842317098,-0.4955855302745312,0,0,0,1
0.3004508253373409,-0.7256439842317098,-0.4955855302745312,0,0,0,1
0.3004508253373409,-0.7256439842317098,-0.4955855302745312,0,0,0,1
0.19244147533734088,2.06819011576829,0.43274604972546876,0,0,0,1
0.19244147533734088,2.06819011576829,0.43274604972546876,0,0,0,1
0.19244147533734088,2.06819011576829,0.43274604972546876,0,0,0,1
3.8973803253373407,1.15293601576829,0.18325778972546877,0,0,0,1
-2.7230224746626592,1.30997011576829,-0.7250790802745312,0,0,0,1
-1.457745974662659,-0.5388807842317098,-0.7671184302745312,0,0,0,1
-1.457745974662659,-0.5388807842317098,-0.7671184302745312,0,0,0,1
-0.4486574946626591,-1.25434258423171,-0.6960931802745312,0,0,0,1
2.285466725337341,0.8179985457682901,-0.22085557027453123,0,0,0,1
2.285466725337341,0.8179985457682901,-0.22085557027453123,0,0,0,1
3.9453673253373407,0.30591441576829015,0.023275879725468775,0,0,0,1
1.373168525337341,-1.13340768423171,-0.21340934027453123,0,0,0,1
1.373168525337341,-1.13340768423171,-0.21340934027453123,0,0,0,1
-2.468934074662659,-1.49684308423171,-0.5231307802745312,0,0,0,1
-1.872848474662659,-0.9242984442317098,1.1689660197254688,0,0,0,1
-0.8761114746626592,1.2122060157682901,1.060744719725469,0,0,0,1
-0.8761114746626592,1.2122060157682901,1.060744719725469,0,0,0,1
3.706817125337341,1.49356501576829,-0.23200503027453123,0,0,0,1
3.6595912253373406,0.22952558576829013,-0.8356606802745312,0,0,0,1
0.5399108253373409,-0.9514277842317098,-2.107350680274531,0,0,0,1
0.5399108253373409,-0.9514277842317098,-2.107350680274531,0,0,0,1
-1.521613574662659,-1.3173101842317099,-1.6502382802745312,0,0,0,1
-1.868307574662659,0.30510749576829016,-0.12992558027453122,0,0,0,1
0.18430282533734088,0.9492304557682901,0.7270270897254688,0,0,0,1
0.18430282533734088,0.9492304557682901,0.7270270897254688,0,0,0,1
3.3921885253373407,0.6460541657682901,1.0133218197254688,0,0,0,1
1.514249325337341,1.25937161576829,0.7263175197254689,0,0,0,1
1.514249325337341,1.25937161576829,0.7263175197254689,0,0,0,1
-0.4582943746626591,0.7736205157682902,-0.11438337027453123,0,0,0,1
-1.808602774662659,-1.42401268423171,-0.37159065027453125,0,0,0,1
0.8203444653373408,-0.26681942423170985,-0.14642224027453124,0,0,0,1
0.8203444653373408,-0.26681942423170985,-0.14642224027453124,0,0,0,1
2.396069025337341,-0.17643305423170988,-0.7356477802745311,0,0,0,1
1.572614225337341,-1.8535215842317099,-0.8227555802745312,0,0,0,1
-3.0182556746626594,1.73337331576829,0.9292918197254688,0,0,0,1
-3.0182556746626594,1.73337331576829,0.9292918197254688,0,0,0,1
-3.0182556746626594,1.73337331576829,0.9292918197254688,0,0,0,1
2.704691425337341,0.5027758157682901,-1.0118314802745312,0,0,0,1
-0.1806597546626591,-1.83355838423171,-1.5152180802745312,0,0,0,1
-0.1806597546626591,-1.83355838423171,-1.5152180802745312,0,0,0,1
-0.1806597546626591,-1.83355838423171,-1.5152180802745312,0,0,0,1
-2.587129074662659,0.42382653576829016,-0.30993668027453125,0,0,0,1
-0.9691967746626591,1.46571041576829,0.9177972197254688,0,0,0,1
-0.9691967746626591,1.46571041576829,0.9177972197254688,0,0,0,1
1.687799925337341,1.58805851576829,1.1375749197254688,0,0,0,1
2.9156147253373406,1.04986141576829,0.49212118972546876,0,0,0,1
3.0143914253373407,0.9675885657682901,-0.17828808027453122,0,0,0,1
2.0983033253373407,0.24890921576829012,-1.322351080274531,0,0,0,1
-2.928760074662659,-2.1212076842317096,-0.7720018302745312,0,0,0,1
-4.65596297466266,-0.7834868242317099,-0.2686832302745312,0,0,0,1
-2.516606274662659,0.41132857576829013,0.26453527972546875,0,0,0,1
1.212964525337341,0.7233118557682902,0.13548567972546877,0,0,0,1
1.624396825337341,-0.8799443842317098,-0.27911922027453123,0,0,0,1
-0.6387409746626591,0.2844425957682901,0.3955306997254688,0,0,0,1
-0.6387409746626591,0.2844425957682901,0.3955306997254688,0,0,0,1
-2.9955920746626594,0.9875777157682901,0.19441219972546878,0,0,0,1
-0.7559628346626591,-0.5980697842317099,0.02754464572546877,0,0,0,1
3.213987725337341,0.5445860857682902,-1.0309510802745312,0,0,0,1
-2.910093774662659,1.34516131576829,0.4521217897254688,0,0,0,1
-2.8944906746626593,1.39735961576829,0.6325555197254689,0,0,0,1
-2.8944906746626593,1.39735961576829,0.6325555197254689,0,0,0,1
3.0210624253373406,-0.6504963842317099,-0.8176532802745312,0,0,0,1
2.7388301253373406,-1.63960798423171,-0.8356185802745312,0,0,0,1
2.7388301253373406,-1.63960798423171,-0.8356185802745312,0,0,0,1
-2.874276174662659,-1.21069338423171,-0.4502905802745312,0,0,0,1
-2.550610574662659,0.14114821576829012,0.44619935972546876,0,0,0,1
0.0887684953373409,0.8819119557682902,0.39170729972546875,0,0,0,1
0.0887684953373409,0.8819119557682902,0.39170729972546875,0,0,0,1
1.580522125337341,-0.1722268442317099,0.4921626697254688,0,0,0,1
2.991942925337341,-0.6914620242317099,-0.4350725802745312,0,0,0,1
3.007656625337341,-0.34249512423170986,-0.09982708027453123,0,0,0,1
-1.297584974662659,-0.28968710423170985,-1.4894412802745312,0,0,0,1
-3.342723874662659,-0.36295751423170985,-0.6651474802745312,0,0,0,1
-3.764398574662659,-0.5450997842317099,-0.09296188027453123,0,0,0,1
-1.738814774662659,0.17967990576829013,1.057099519725469,0,0,0,1
0.8324256253373409,0.9100444157682901,0.5510924197254689,0,0,0,1
3.7891822253373406,0.47338287576829013,0.6989922197254689,0,0,0,1
5.6540923253373405,-0.16962600423170987,0.28711821972546875,0,0,0,1
4.112167725337341,-0.29709650423170986,-0.7208079802745312,0,0,0,1
-4.108585774662659,0.27400799576829016,-0.9719184802745312,0,0,0,1
-6.068391274662659,0.2520974757682901,-0.8006127202745311,0,0,0,1
-6.068391274662659,0.2520974757682901,-0.8006127202745311,0,0,0,1
-6.010355274662659,0.36880867576829013,-0.16347042027453124,0,0,0,1
-3.468232574662659,0.6119829557682901,0.7789548197254689,0,0,0,1
6.741840725337341,-0.5574410842317099,0.003000823725468774,0,0,0,1
2.9920611253373406,0.25573818576829016,-1.2758840802745313,0,0,0,1
-0.9829849746626591,-0.8260423342317098,-1.171877080274531,0,0,0,1
-0.9829849746626591,-0.8260423342317098,-1.171877080274531,0,0,0,1
-8.723906274662658,-0.8119095342317099,-1.8582751802745312,0,0,0,1
-0.47633694466265913,1.14695171576829,1.5758470197254688,0,0,0,1
-0.47633694466265913,1.14695171576829,1.5758470197254688,0,0,0,1
4.65306042533734,1.20325521576829,1.1793020197254689,0,0,0,1
4.65306042533734,1.20325521576829,1.1793020197254689,0,0,0,1
5.106289425337341,-0.1566396942317099,0.8372556197254688,0,0,0,1
5.574863725337341,-2.31080718423171,-0.5213673802745312,0,0,0,1
4.240437025337341,-2.1817254842317095,-1.3507711802745312,0,0,0,1
4.240437025337341,-2.1817254842317095,-1.3507711802745312,0,0,0,1
-5.191956074662659,1.34922531576829,-1.8879865802745313,0,0,0,1
-5.191956074662659,1.34922531576829,-1.8879865802745313,0,0,0,1
-4.108481874662659,1.80460231576829,0.3864150897254688,0,0,0,1
-1.662900474662659,0.40696306576829017,1.4370095197254689,0,0,0,1
-1.662900474662659,0.40696306576829017,1.4370095197254689,0,0,0,1
2.952921425337341,-1.19777908423171,0.9169785697254689,0,0,0,1
6.1426537253373406,-1.92854608423171,0.6947527197254688,0,0,0,1
2.798911625337341,-0.030451920231709867,-0.5814497802745312,0,0,0,1
2.798911625337341,-0.030451920231709867,-0.5814497802745312,0,0,0,1
