acc_x,acc_y,acc_z,gyro_x,gyro_y,gyro_z,label
1.108730825337341,-0.39366094423170983,-0.8148937802745312,0,0,0,1
-0.044815524662659104,-0.31998373423170984,-1.3004128802745312,0,0,0,1
-0.044815524662659104,-0.31998373423170984,-1.3004128802745312,0,0,0,1
-0.6138462746626591,-0.46694018423170985,-1.1333061802745312,0,0,0,1
-0.8464760746626591,0.06866164576829013,-0.6339765802745312,0,0,0,1
-0.35884044466265913,0.8976744557682902,-0.12254980027453123,0,0,0,1
1.137977125337341,0.8653562157682901,0.20197155972546876,0,0,0,1
1.137977125337341,0.8653562157682901,0.20197155972546876,0,0,0,1
1.917827125337341,0.07801781576829013,0.5260678197254688,0,0,0,1
-0.2425331946626591,-1.01948868423171,0.3001910697254688,0,0,0,1
-0.2425331946626591,-1.01948868423171,0.3001910697254688,0,0,0,1
-0.9286398746626591,0.5756777157682902,-0.03741124427453123,0,0,0,1
-0.9286398746626591,0.5756777157682902,-0.03741124427453123,0,0,0,1
-0.9286398746626591,0.5756777157682902,-0.03741124427453123,0,0,0,1
1.400351025337341,-0.03735632823170987,-0.9340542802745312,0,0,0,1
1.719744225337341,-0.2756629842317099,-1.0730243802745312,0,0,0,1
0.038628117337340895,-0.04638541923170987,-0.3235692102745312,0,0,0,1
-0.3594460346626591,0.49199755576829013,0.5190021697254689,0,0,0,1
-0.3594460346626591,0.49199755576829013,0.5190021697254689,0,0,0,1
-0.3594460346626591,0.49199755576829013,0.5190021697254689,0,0,0,1
-0.4601244746626591,0.7629742757682901,0.5568604797254688,0,0,0,1
-0.19187687466265912,-0.07567257823170986,0.22233977972546878,0,0,0,1
0.48747779533734087,-1.03344128423171,-0.42444363027453125,0,0,0,1
0.48747779533734087,-1.03344128423171,-0.42444363027453125,0,0,0,1
0.48747779533734087,-1.03344128423171,-0.42444363027453125,0,0,0,1
0.3802876653373409,-0.27428291423170986,-0.6764286802745312,0,0,0,1
0.5032019753373409,-0.8417083842317099,-0.19913033027453123,0,0,0,1
-1.171963174662659,0.7390123757682902,0.5079611197254689,0,0,0,1
-0.21158741466265912,0.7996895457682901,0.6627009797254688,0,0,0,1
-0.21158741466265912,0.7996895457682901,0.6627009797254688,0,0,0,1
1.202333025337341,0.27501981576829015,0.5522685197254689,0,0,0,1
1.202333025337341,0.27501981576829015,0.5522685197254689,0,0,0,1
-0.6993975746626591,-1.2771938842317099,-0.5849814802745312,0,0,0,1
-0.039524538662659106,-1.08152338423171,-0.25065830027453123,0,0,0,1
0.22757198533734088,1.4211226157682901,-0.3289537802745312,0,0,0,1
-0.9674811246626591,1.2677180157682901,-0.5635621802745312,0,0,0,1
-0.07798717466265911,0.05466701576829013,-0.019531281274531225,0,0,0,1
0.4230475553373409,-0.29110280423170987,-0.10825112627453123,0,0,0,1
0.4230475553373409,-0.29110280423170987,-0.10825112627453123,0,0,0,1
-0.24879692466265912,-0.04002462023170987,-0.07019535027453122,0,0,0,1
0.5013270253373409,-0.3804510642317099,0.23929031972546877,0,0,0,1
-1.201042674662659,0.06641181176829013,-0.33817235027453124,0,0,0,1
-0.03880737466265911,0.08220120076829013,0.3065208497254688,0,0,0,1
-0.03880737466265911,0.08220120076829013,0.3065208497254688,0,0,0,1
0.23585559533734088,0.7323135157682902,0.26511511972546875,0,0,0,1
0.23585559533734088,0.7323135157682902,0.26511511972546875,0,0,0,1
0.5506530253373408,0.6735161757682901,-0.5582015802745312,0,0,0,1
1.839236725337341,-0.7165225842317099,-0.4196827802745312,0,0,0,1
1.641033625337341,-1.83664148423171,-0.15977803027453122,0,0,0,1
-0.3892903146626591,-0.7676009342317098,0.13042255972546876,0,0,0,1
-0.3892903146626591,-0.7676009342317098,0.13042255972546876,0,0,0,1
-1.683339574662659,0.8631034657682901,0.22135188972546876,0,0,0,1
-1.091584674662659,0.8873635157682901,0.3195393397254688,0,0,0,1
-1.558393974662659,0.5984235157682901,-0.006867678504531225,0,0,0,1
1.218481525337341,0.09312068576829013,-0.6694476802745312,0,0,0,1
1.218481525337341,0.09312068576829013,-0.6694476802745312,0,0,0,1
2.364580725337341,-0.2060469842317099,-0.5690046802745312,0,0,0,1
-0.4457077746626591,0.33942447576829016,-0.7789503802745312,0,0,0,1
-0.4457077746626591,0.33942447576829016,-0.7789503802745312,0,0,0,1
-0.6377882746626591,-0.1556179342317099,0.10083469572546877,0,0,0,1
-1.137278974662659,-0.010577600731709871,0.6016214797254689,0,0,0,1
-1.972321474662659,0.49905886576829017,0.9990185197254688,0,0,0,1
-0.7961210746626591,0.4378480457682901,0.9934743197254687,0,0,0,1
2.370766225337341,-0.37588743423170984,-0.23451379027453123,0,0,0,1
1.149839925337341,-1.02835268423171,-0.8771054802745312,0,0,0,1
1.149839925337341,-1.02835268423171,-0.8771054802745312,0,0,0,1
-0.16143177466265912,-1.3905650842317099,-0.9409815402745312,0,0,0,1
-0.6953415746626591,0.9207128157682901,-0.017929704274531225,0,0,0,1
-0.6953415746626591,0.9207128157682901,-0.017929704274531225,0,0,0,1
0.5924134253373409,1.24706861576829,0.35211535972546876,0,0,0,1
0.5924134253373409,1.24706861576829,0.35211535972546876,0,0,0,1
0.5924134253373409,1.24706861576829,0.35211535972546876,0,0,0,1
1.210669025337341,0.38179121576829017,0.9142120197254688,0,0,0,1
0.2037825753373409,0.45291056576829014,1.0892758197254688,0,0,0,1
-0.5987639246626592,0.38915123576829014,0.9237468197254688,0,0,0,1
-0.9546723246626592,0.04062183576829013,0.25756719972546877,0,0,0,1
1.509729925337341,-0.38148508423170985,-0.9672066302745311,0,0,0,1
0.5379252553373409,0.011961001768290128,-0.8029898802745312,0,0,0,1
1.063095625337341,0.7564311157682901,0.2749251397254688,0,0,0,1
1.063095625337341,0.7564311157682901,0.2749251397254688,0,0,0,1
1.063095625337341,0.7564311157682901,0.2749251397254688,0,0,0,1
0.4509301253373409,0.44620929576829016,0.5305809197254688,0,0,0,1
-0.3041882346626591,-1.17579658423171,-0.24808875027453123,0,0,0,1
-2.192052274662659,-0.1332953342317099,-0.08870879027453123,0,0,0,1
-0.9165921046626591,0.43121458576829014,-0.07294026027453122,0,0,0,1
1.291885825337341,0.8613648157682902,-0.3350403602745312,0,0,0,1
1.975269825337341,0.8572191157682901,-0.5668488802745312,0,0,0,1
1.533006225337341,0.7252481157682902,-1.0861942802745312,0,0,0,1
1.533006225337341,0.7252481157682902,-1.0861942802745312,0,0,0,1
1.065516025337341,-0.2722753842317099,-0.8037264802745312,0,0,0,1
0.1497121053373409,-0.49921098423170984,-0.49305251027453123,0,0,0,1
0.1497121053373409,-0.49921098423170984,-0.49305251027453123,0,0,0,1
-0.5667853146626591,-0.42619691423170986,0.31662311972546875,0,0,0,1
-0.5667853146626591,-0.42619691423170986,0.31662311972546875,0,0,0,1
1.102948725337341,-0.9430186842317099,0.40592637972546874,0,0,0,1
1.102948725337341,-0.9430186842317099,0.40592637972546874,0,0,0,1
1.102948725337341,-0.9430186842317099,0.40592637972546874,0,0,0,1
0.5091710253373409,-0.21128050423170988,0.24157818972546877,0,0,0,1
0.5091710253373409,-0.21128050423170988,0.24157818972546877,0,0,0,1
0.5825572253373409,1.16220981576829,-0.0038520410745312254,0,0,0,1
1.489241125337341,0.7887771157682901,-0.6486977802745312,0,0,0,1
1.073688025337341,-0.9406487142317098,-1.0110909802745311,0,0,0,1
0.040427701337340895,-2.1965412842317096,-0.8710236802745311,0,0,0,1
-1.044298674662659,-1.49706148423171,0.27385368972546875,0,0,0,1
-1.044298674662659,-1.49706148423171,0.27385368972546875,0,0,0,1
-1.044298674662659,-1.49706148423171,0.27385368972546875,0,0,0,1
-1.562104674662659,0.36509551576829014,1.4340747197254688,0,0,0,1
0.3665328253373409,0.5385883157682901,1.4115712197254688,0,0,0,1
0.3449940853373409,-0.9961030842317099,-0.11357036027453123,0,0,0,1
0.3449940853373409,-0.9961030842317099,-0.11357036027453123,0,0,0,1
0.22044231533734088,0.29059611576829014,-0.3447451802745312,0,0,0,1
0.22044231533734088,0.29059611576829014,-0.3447451802745312,0,0,0,1
0.22044231533734088,0.29059611576829014,-0.3447451802745312,0,0,0,1
0.8171181853373409,1.2431552157682901,-0.8033856502745311,0,0,0,1
0.8171181853373409,1.2431552157682901,-0.8033856502745311,0,0,0,1
0.8171181853373409,1.2431552157682901,-0.8033856502745311,0,0,0,1
-1.087502974662659,0.5193636557682901,1.5910351197254688,0,0,0,1
-0.5300106746626592,0.6448427657682901,0.9418301897254688,0,0,0,1
-0.5300106746626592,0.6448427657682901,0.9418301897254688,0,0,0,1
1.797449625337341,-1.10951908423171,-0.22855631027453122,0,0,0,1
1.797449625337341,-1.10951908423171,-0.22855631027453122,0,0,0,1
1.797449625337341,-1.10951908423171,-0.22855631027453122,0,0,0,1
0.7733531253373409,-0.9936521842317099,-0.9583944402745311,0,0,0,1
-1.328313374662659,-0.1388985942317099,-1.0208411802745312,0,0,0,1
0.9928193253373409,-0.0014087970317098715,-0.9537509802745312,0,0,0,1
2.0127587253373407,-1.02761508423171,-0.5170343202745312,0,0,0,1
2.0127587253373407,-1.02761508423171,-0.5170343202745312,0,0,0,1
1.728435025337341,-0.8337498842317098,-0.28379838027453125,0,0,0,1
1.728435025337341,-0.8337498842317098,-0.28379838027453125,0,0,0,1
-0.5549940746626592,0.7505596457682902,0.9731359797254688,0,0,0,1
-2.7709569746626594,2.70304041576829,1.3234305197254688,0,0,0,1
-2.7709569746626594,2.70304041576829,1.3234305197254688,0,0,0,1
-0.8638834746626591,-0.07977242423170987,0.5866530797254689,0,0,0,1
0.3881430753373409,-1.3227769842317099,-0.4793950602745312,0,0,0,1
1.763599925337341,-1.24354908423171,-1.3299938802745312,0,0,0,1
1.763599925337341,-1.24354908423171,-1.3299938802745312,0,0,0,1
1.763599925337341,-1.24354908423171,-1.3299938802745312,0,0,0,1
1.763599925337341,-1.24354908423171,-1.3299938802745312,0,0,0,1
-0.7684864746626591,0.7461740157682901,-0.3486265302745312,0,0,0,1
-0.7684864746626591,0.7461740157682901,-0.3486265302745312,0,0,0,1
-2.379353474662659,0.13168625576829013,0.23939492972546877,0,0,0,1
-1.326312574662659,-1.14782168423171,1.2441530197254689,0,0,0,1
0.08958961533734089,-0.2567653442317099,1.3668020197254689,0,0,0,1
0.08958961533734089,-0.2567653442317099,1.3668020197254689,0,0,0,1
1.915788225337341,0.9114101157682901,1.1839642197254687,0,0,0,1
1.804697525337341,-0.04250476923170987,-0.6599195302745312,0,0,0,1
0.2151484653373409,-0.5184727842317098,-1.1032832802745312,0,0,0,1
-1.412526574662659,0.4619265357682901,-1.048867980274531,0,0,0,1
-2.1186880746626593,1.56804301576829,-0.13610312027453123,0,0,0,1
-1.456386074662659,1.84329641576829,0.15973278972546878,0,0,0,1
-1.456386074662659,1.84329641576829,0.15973278972546878,0,0,0,1
1.010061725337341,-1.34606108423171,-0.22011235027453124,0,0,0,1
2.128733125337341,-1.80463218423171,0.047702161725468775,0,0,0,1
2.128733125337341,-1.80463218423171,0.047702161725468775,0,0,0,1
1.793087525337341,-0.29085321423170984,0.8861000197254688,0,0,0,1
1.793087525337341,-0.29085321423170984,0.8861000197254688,0,0,0,1
-1.144743474662659,-0.4206869442317099,-0.22286722027453124,0,0,0,1
-1.144743474662659,-0.4206869442317099,-0.22286722027453124,0,0,0,1
-0.9983792146626591,-2.4716138842317097,-0.8945453502745312,0,0,0,1
0.10076953533734088,-2.0231960842317096,-0.9060943402745312,0,0,0,1
1.470281125337341,0.10299089576829012,-0.7883476302745311,0,0,0,1
1.470281125337341,0.10299089576829012,-0.7883476302745311,0,0,0,1
1.467621325337341,2.1398869157682903,0.17532494972546878,0,0,0,1
-1.383883974662659,0.41766621576829016,0.32274135972546875,0,0,0,1
-0.013658030662659106,-0.8300282142317098,-0.031667740274531224,0,0,0,1
-0.013658030662659106,-0.8300282142317098,-0.031667740274531224,0,0,0,1
1.446472625337341,-0.9165225842317098,-0.4576579602745312,0,0,0,1
1.446472625337341,-0.9165225842317098,-0.4576579602745312,0,0,0,1
-0.3186926746626591,0.9476747657682901,-0.15587625027453123,0,0,0,1
-0.31591270466265914,-0.07871500823170988,-0.22237274027453122,0,0,0,1
-0.31591270466265914,-0.07871500823170988,-0.22237274027453122,0,0,0,1
-0.5215449146626591,-0.27733702423170986,-0.055652947274531225,0,0,0,1
1.021136725337341,0.5696202657682902,0.7167172697254688,0,0,0,1
1.021136725337341,0.5696202657682902,0.7167172697254688,0,0,0,1
2.146626925337341,0.9505269157682902,0.4431463797254688,0,0,0,1
-0.5762848746626591,-0.7709420842317098,-0.6320465802745312,0,0,0,1
-0.5762848746626591,-0.7709420842317098,-0.6320465802745312,0,0,0,1
-0.6552252746626591,-0.35507492423170983,-0.10206279027453123,0,0,0,1
-0.6552252746626591,-0.35507492423170983,-0.10206279027453123,0,0,0,1
-0.6552252746626591,-0.35507492423170983,-0.10206279027453123,0,0,0,1
-1.159499674662659,1.32388771576829,0.010030357725468775,0,0,0,1
0.9860253253373409,1.20993571576829,0.10294827972546877,0,0,0,1
0.8090520253373409,-0.36657450423170984,0.19817503972546877,0,0,0,1
-1.355346174662659,0.5364425157682902,-0.04217800627453122,0,0,0,1
-0.6983971446626591,-1.58015658423171,-0.6918565302745312,0,0,0,1
-0.6983971446626591,-1.58015658423171,-0.6918565302745312,0,0,0,1
-1.587609774662659,2.89060311576829,0.45532139972546876,0,0,0,1
-1.587609774662659,2.89060311576829,0.45532139972546876,0,0,0,1
-0.7898173146626591,2.66759421576829,0.38068731972546876,0,0,0,1
-0.7898173146626591,2.66759421576829,0.38068731972546876,0,0,0,1
2.1604991253373407,-1.2891128842317099,-1.1480822802745312,0,0,0,1
2.1604991253373407,-1.2891128842317099,-1.1480822802745312,0,0,0,1
-0.5533852446626591,-1.13445598423171,0.43593695972546875,0,0,0,1
-0.5533852446626591,-1.13445598423171,0.43593695972546875,0,0,0,1
-0.5533852446626591,-1.13445598423171,0.43593695972546875,0,0,0,1
-0.5434956346626592,0.15075074576829012,0.8732744697254688,0,0,0,1
-0.5434956346626592,0.15075074576829012,0.8732744697254688,0,0,0,1
-0.5434956346626592,0.15075074576829012,0.8732744697254688,0,0,0,1
-0.7949051746626591,1.86768151576829,0.9359954197254688,0,0,0,1
-0.6486429746626591,-0.45306770423170983,-0.8949212802745312,0,0,0,1
-0.6486429746626591,-0.45306770423170983,-0.8949212802745312,0,0,0,1
-0.13331745466265912,0.0006972585682901286,-0.5947107402745312,0,0,0,1
-0.13331745466265912,0.0006972585682901286,-0.5947107402745312,0,0,0,1
-0.9904207746626591,1.24275261576829,-0.4440017102745312,0,0,0,1
-0.9904207746626591,1.24275261576829,-0.4440017102745312,0,0,0,1
0.2721419453373409,1.74080391576829,0.6412391197254689,0,0,0,1
2.491607225337341,1.13767911576829,0.9971610197254688,0,0,0,1
1.787886125337341,0.6500931557682902,0.5211158197254688,0,0,0,1
-0.7223067146626592,0.24309876576829012,-0.5890460802745312,0,0,0,1
-1.424623974662659,-1.34862738423171,-0.47047821027453124,0,0,0,1
