acc_x,acc_y,acc_z,gyro_x,gyro_y,gyro_z,label
1.321472625337341,-0.04584553423170987,-0.6803617802745312,0,0,0,1
0.6173596253373409,-0.3695806642317099,-0.7516768302745311,0,0,0,1
-0.5163759746626592,0.8903110157682902,-0.033917070274531225,0,0,0,1
-0.5163759746626592,0.8903110157682902,-0.033917070274531225,0,0,0,1
-0.5163759746626592,0.8903110157682902,-0.033917070274531225,0,0,0,1
0.4853892453373409,1.57719181576829,1.101938819725469,0,0,0,1
0.3647294253373409,1.44930881576829,0.5741320197254688,0,0,0,1
0.3344378653373409,0.013644713768290129,-0.05641228027453122,0,0,0,1
-0.5363249746626592,-1.45226508423171,-0.4946459802745312,0,0,0,1
-1.779072274662659,-1.79838388423171,-0.9705916802745311,0,0,0,1
0.24680377533734088,0.1412850757682901,-0.40335478027453125,0,0,0,1
1.177569925337341,0.9966339657682901,-0.22104210027453122,0,0,0,1
1.177569925337341,0.9966339657682901,-0.22104210027453122,0,0,0,1
1.371956325337341,0.25500588576829014,0.31567531972546875,0,0,0,1
1.371475725337341,0.25758381576829015,0.3073562997254688,0,0,0,1
-2.0700654746626594,0.08125107576829013,0.19169094972546877,0,0,0,1
-0.4062638146626591,0.21978886576829013,0.023742346725468776,0,0,0,1
-0.4062638146626591,0.21978886576829013,0.023742346725468776,0,0,0,1
0.4736094653373409,0.44581981576829016,-0.09494403027453123,0,0,0,1
0.4736094653373409,0.44581981576829016,-0.09494403027453123,0,0,0,1
0.4736094653373409,0.44581981576829016,-0.09494403027453123,0,0,0,1
2.0451427253373407,-0.34088048423170986,-0.4485137802745312,0,0,0,1
-1.351507674662659,-0.17517603423170988,-0.10362536027453123,0,0,0,1
-1.824618774662659,-0.4781957042317099,0.23358502972546877,0,0,0,1
-1.824618774662659,-0.4781957042317099,0.23358502972546877,0,0,0,1
-0.1844715946626591,-0.28582925423170985,0.8090888197254689,0,0,0,1
-0.1844715946626591,-0.28582925423170985,0.8090888197254689,0,0,0,1
0.6739649953373409,0.2396258857682901,0.40128355972546875,0,0,0,1
1.611587025337341,-0.05463374823170987,0.001119731725468775,0,0,0,1
1.221187125337341,-0.5722471242317099,-0.3786852402745312,0,0,0,1
-0.4633955746626591,-0.39233578423170984,-0.9070442802745312,0,0,0,1
-1.263085874662659,-0.03352476423170987,-0.8875998802745312,0,0,0,1
-0.6021837746626592,0.4150548157682901,-0.5038508502745312,0,0,0,1
-0.6021837746626592,0.4150548157682901,-0.5038508502745312,0,0,0,1
0.5682883253373409,0.7037073557682901,-0.05309340527453122,0,0,0,1
1.150593325337341,0.07327558576829013,0.2725140397254688,0,0,0,1
1.264350425337341,-0.20552111423170988,0.43309511972546877,0,0,0,1
0.2550740353373409,-0.08297989923170987,0.13965111972546876,0,0,0,1
-0.4467024746626591,-0.3960226042317099,0.008254407725468774,0,0,0,1
-0.5618157246626592,-0.4341673642317099,-0.21505904027453124,0,0,0,1
-0.5618157246626592,-0.4341673642317099,-0.21505904027453124,0,0,0,1
0.1833148153373409,0.39993691576829016,-0.44220081027453123,0,0,0,1
1.404694125337341,0.6501370857682901,-0.3572409802745312,0,0,0,1
1.538880825337341,0.36414177576829015,-0.41664938027453124,0,0,0,1
-0.3892073446626591,0.40592514576829014,0.6007822197254689,0,0,0,1
-0.3892073446626591,0.40592514576829014,0.6007822197254689,0,0,0,1
0.9387030753373409,0.8968773657682901,0.4016665497254688,0,0,0,1
2.268647725337341,-0.25897030423170986,-0.5388773402745312,0,0,0,1
2.268647725337341,-0.25897030423170986,-0.5388773402745312,0,0,0,1
-1.266760274662659,-0.46543924423170985,-1.1053467802745311,0,0,0,1
-1.858292574662659,0.6172224157682902,-0.16883752027453122,0,0,0,1
-1.858292574662659,0.6172224157682902,-0.16883752027453122,0,0,0,1
-1.298008474662659,1.53471231576829,0.032083689725468774,0,0,0,1
-0.4042782746626591,0.7594119457682902,-0.21148560027453123,0,0,0,1
1.562433725337341,-1.80555518423171,-0.4716766202745312,0,0,0,1
1.397190625337341,-1.51176238423171,0.06094237972546878,0,0,0,1
1.397190625337341,-1.51176238423171,0.06094237972546878,0,0,0,1
0.06677772533734089,0.15781818576829013,0.4955764197254688,0,0,0,1
-1.154874274662659,0.9225831157682901,0.3551761497254688,0,0,0,1
-0.7194018246626591,-0.13464808423170987,0.09717529972546878,0,0,0,1
-0.7194018246626591,-0.13464808423170987,0.09717529972546878,0,0,0,1
-0.15681408466265911,-0.48988548423170986,-0.5615475502745312,0,0,0,1
0.7114615553373409,-0.3934490842317099,-0.6490744802745312,0,0,0,1
-0.5615296246626591,0.38518207576829017,-0.3857297602745312,0,0,0,1
-0.5615296246626591,0.38518207576829017,-0.3857297602745312,0,0,0,1
-0.7459616746626591,-0.33566902423170986,0.2974460697254688,0,0,0,1
0.031928555337340896,-1.37974888423171,0.5347597197254689,0,0,0,1
0.031928555337340896,-1.37974888423171,0.5347597197254689,0,0,0,1
0.8714909753373409,-0.32132281423170983,0.3834229997254688,0,0,0,1
0.8714909753373409,-0.32132281423170983,0.3834229997254688,0,0,0,1
0.8714909753373409,-0.32132281423170983,0.3834229997254688,0,0,0,1
1.365839525337341,-0.20947308423170988,-0.2775550202745312,0,0,0,1
1.038023525337341,0.41986985576829017,-0.2592196202745312,0,0,0,1
-0.14949272466265912,0.5008732157682901,0.21035348972546877,0,0,0,1
-0.6480421746626591,-0.23716860423170988,0.7126458197254688,0,0,0,1
-0.6480421746626591,-0.23716860423170988,0.7126458197254688,0,0,0,1
0.22833301533734088,-0.017108169231709873,0.15312143972546877,0,0,0,1
1.381464525337341,0.34538221576829015,0.06413468572546877,0,0,0,1
1.381464525337341,0.34538221576829015,0.06413468572546877,0,0,0,1
-1.767245774662659,0.2381079057682901,-0.19944942027453122,0,0,0,1
-1.858618274662659,-0.9109962842317099,-0.42405492027453123,0,0,0,1
0.37225867533734086,-1.34815408423171,-0.44936186027453123,0,0,0,1
0.37225867533734086,-1.34815408423171,-0.44936186027453123,0,0,0,1
0.37225867533734086,-1.34815408423171,-0.44936186027453123,0,0,0,1
0.37225867533734086,-1.34815408423171,-0.44936186027453123,0,0,0,1
1.680650225337341,0.5461223157682902,0.5115300697254688,0,0,0,1
1.680650225337341,0.5461223157682902,0.5115300697254688,0,0,0,1
-0.20752571466265912,0.2523708157682901,0.07974147972546877,0,0,0,1
-1.264631774662659,-1.36977138423171,0.09441139972546878,0,0,0,1
-1.264631774662659,-1.36977138423171,0.09441139972546878,0,0,0,1
1.547844425337341,1.18300861576829,-0.45866412027453124,0,0,0,1
1.547844425337341,1.18300861576829,-0.45866412027453124,0,0,0,1
0.5695052253373409,0.36364789576829015,-0.5791021802745312,0,0,0,1
0.5695052253373409,0.36364789576829015,-0.5791021802745312,0,0,0,1
0.5695052253373409,0.36364789576829015,-0.5791021802745312,0,0,0,1
-1.175752174662659,-0.5339544242317098,-0.6244470202745311,0,0,0,1
0.2654833953373409,-0.36926506423170985,-0.11854205027453123,0,0,0,1
0.2654833953373409,-0.36926506423170985,-0.11854205027453123,0,0,0,1
0.2654833953373409,-0.36926506423170985,-0.11854205027453123,0,0,0,1
0.9346165853373409,-1.23156938423171,0.5868392897254688,0,0,0,1
-0.9903855146626591,0.3147935157682901,0.6105040197254689,0,0,0,1
-0.9903855146626591,0.3147935157682901,0.6105040197254689,0,0,0,1
0.27705337533734087,-0.9572048842317099,-0.15820101027453123,0,0,0,1
1.261397825337341,-0.8944521842317098,-0.7669908102745312,0,0,0,1
1.261397825337341,-0.8944521842317098,-0.7669908102745312,0,0,0,1
-1.024694874662659,0.7809244557682902,-0.5278886802745312,0,0,0,1
-2.006495974662659,0.5124290157682901,-0.5189418802745311,0,0,0,1
-1.161412674662659,-0.17774437423170988,0.3088065197254688,0,0,0,1
-1.161412674662659,-0.17774437423170988,0.3088065197254688,0,0,0,1
0.5780863953373409,-0.1415411242317099,0.3675796697254688,0,0,0,1
0.5780863953373409,-0.1415411242317099,0.3675796697254688,0,0,0,1
1.719251125337341,-0.5373280442317099,-0.15509680027453124,0,0,0,1
0.2291779653373409,-0.6775270842317098,0.3555383197254688,0,0,0,1
-2.589859974662659,0.03737635876829013,0.3014794897254688,0,0,0,1
-2.589859974662659,0.03737635876829013,0.3014794897254688,0,0,0,1
-1.802936974662659,0.5674996557682901,0.12074478972546876,0,0,0,1
-0.25606869466265914,0.3308353157682901,-0.4590167102745312,0,0,0,1
3.3748212253373406,-0.06036118423170987,-0.6038973802745312,0,0,0,1
-0.2234682846626591,0.1782166957682901,-0.2529954002745312,0,0,0,1
-0.2234682846626591,0.1782166957682901,-0.2529954002745312,0,0,0,1
-1.580154874662659,0.27803828576829015,0.9208912197254688,0,0,0,1
-1.580154874662659,0.27803828576829015,0.9208912197254688,0,0,0,1
2.8661151253373407,0.48326166576829016,0.5287335197254688,0,0,0,1
3.898568725337341,0.24012565576829012,0.09657906972546877,0,0,0,1
2.765762725337341,0.12095341576829013,-0.6755847802745312,0,0,0,1
-1.985946174662659,-0.7082642842317098,-1.1634030802745312,0,0,0,1
-1.985946174662659,-0.7082642842317098,-1.1634030802745312,0,0,0,1
-3.1972078746626593,-0.02788076223170987,-0.014282704974531225,0,0,0,1
-3.1972078746626593,-0.02788076223170987,-0.014282704974531225,0,0,0,1
-0.9933075746626591,-0.44702313423170986,0.7933225197254689,0,0,0,1
1.385211525337341,-0.9349993842317098,0.3807652197254688,0,0,0,1
3.071274325337341,-1.0540072842317099,-0.16810468027453124,0,0,0,1
2.9779725253373406,-0.9535444242317098,-0.19665632027453123,0,0,0,1
2.9779725253373406,-0.9535444242317098,-0.19665632027453123,0,0,0,1
-1.910611574662659,0.48226081576829016,-0.5947566302745312,0,0,0,1
-1.910611574662659,0.48226081576829016,-0.5947566302745312,0,0,0,1
0.3331151253373409,-0.43440878423170987,-0.9979657202745311,0,0,0,1
0.8436970853373409,-0.2038279842317099,-0.6902566302745312,0,0,0,1
0.8436970853373409,-0.2038279842317099,-0.6902566302745312,0,0,0,1
0.9577241253373409,0.24203047576829012,-0.2971709802745312,0,0,0,1
0.2115101953373409,0.3404329857682901,0.3108229897254688,0,0,0,1
-0.5095801146626591,-0.45730648423170983,0.35447564972546874,0,0,0,1
-0.5095801146626591,-0.45730648423170983,0.35447564972546874,0,0,0,1
0.09202243533734089,-1.0540692842317099,-0.08894840027453123,0,0,0,1
1.001166825337341,-0.1894139742317099,0.21054922972546877,0,0,0,1
-0.039022904662659105,0.8568493157682902,-0.10579261027453123,0,0,0,1
-1.903151474662659,0.4805980557682901,-0.18024334027453123,0,0,0,1
-1.903151474662659,0.4805980557682901,-0.18024334027453123,0,0,0,1
-1.724069074662659,-0.4736240842317099,-0.19711438027453124,0,0,0,1
-0.3775763346626591,0.6310031157682902,0.19401558972546876,0,0,0,1
-0.3775763346626591,0.6310031157682902,0.19401558972546876,0,0,0,1
-0.3775763346626591,0.6310031157682902,0.19401558972546876,0,0,0,1
-0.3775763346626591,0.6310031157682902,0.19401558972546876,0,0,0,1
-2.308373874662659,0.07334425576829014,0.5591616197254689,0,0,0,1
0.9261775253373409,0.23526127576829012,-0.3202345802745312,0,0,0,1
-0.8112425746626591,0.09433698976829014,-0.5114234802745312,0,0,0,1
-0.8112425746626591,0.09433698976829014,-0.5114234802745312,0,0,0,1
-1.749159274662659,0.1970096557682901,-0.16594663027453124,0,0,0,1
-1.749159274662659,0.1970096557682901,-0.16594663027453124,0,0,0,1
0.14639140533734088,-0.9236062842317099,-0.22578696027453124,0,0,0,1
1.332622025337341,-1.15030738423171,-0.3609028802745312,0,0,0,1
1.332622025337341,-1.15030738423171,-0.3609028802745312,0,0,0,1
1.324132425337341,-1.21411868423171,-0.08567747627453123,0,0,0,1
1.324132425337341,-1.21411868423171,-0.08567747627453123,0,0,0,1
0.1420893853373409,0.013657632768290129,0.30723499972546875,0,0,0,1
0.1420893853373409,0.013657632768290129,0.30723499972546875,0,0,0,1
1.509229225337341,-0.1820071342317099,-0.6129508302745311,0,0,0,1
1.509229225337341,-0.1820071342317099,-0.6129508302745311,0,0,0,1
0.7927775253373409,0.19412678576829012,-0.10896489027453123,0,0,0,1
0.7927775253373409,0.19412678576829012,-0.10896489027453123,0,0,0,1
-0.9088206146626591,0.6758870157682901,-0.23932436027453122,0,0,0,1
-1.493595574662659,1.12257331576829,-0.20850137027453122,0,0,0,1
-1.000717624662659,0.37615438576829013,0.19152420972546877,0,0,0,1
-0.4237389446626591,-1.12382548423171,-0.10920832027453123,0,0,0,1
0.1406502853373409,-2.0745472842317096,0.18424635972546877,0,0,0,1
0.1406502853373409,-2.0745472842317096,0.18424635972546877,0,0,0,1
1.733505725337341,-0.5653137842317099,0.39080598972546876,0,0,0,1
1.219909225337341,0.2413259057682901,0.24326019972546875,0,0,0,1
-1.433394874662659,0.09385651576829013,-0.024280758274531227,0,0,0,1
-1.433394874662659,0.09385651576829013,-0.024280758274531227,0,0,0,1
-1.735125974662659,-0.19618476423170988,-0.5115614802745312,0,0,0,1
-0.8733877746626592,-0.29470805423170987,-0.9530404802745311,0,0,0,1
-0.8733877746626592,-0.29470805423170987,-0.9530404802745311,0,0,0,1
-0.5516752746626591,0.6120388657682901,-0.4374541402745312,0,0,0,1
-0.7073569146626592,1.28654921576829,-0.1304771602745312,0,0,0,1
