acc_x,acc_y,acc_z,gyro_x,gyro_y,gyro_z,label
2.575105225337341,-0.5096195842317098,-0.6297236402745312,0,0,0,1
1.162798425337341,-0.6892475842317098,-0.7847452802745312,0,0,0,1
-0.5887150746626592,0.35997831576829015,-0.36910406027453124,0,0,0,1
-0.5887150746626592,0.35997831576829015,-0.36910406027453124,0,0,0,1
-2.0656566746626592,1.43897971576829,-0.48666301027453124,0,0,0,1
-2.0656566746626592,1.43897971576829,-0.48666301027453124,0,0,0,1
-2.0346684746626593,1.09211891576829,-0.16025141027453124,0,0,0,1
1.141755625337341,-0.7945229242317099,0.5849853197254689,0,0,0,1
1.899568125337341,-0.24489838423170987,-0.16471890027453123,0,0,0,1
1.899568125337341,-0.24489838423170987,-0.16471890027453123,0,0,0,1
2.3154683253373407,0.16564668576829011,0.03799912172546878,0,0,0,1
2.092365725337341,-0.06877056923170986,-0.4378519402745312,0,0,0,1
0.47145415533734086,-0.6471619842317099,-0.7696985302745312,0,0,0,1
-1.769649974662659,-0.5841891842317098,-1.066295980274531,0,0,0,1
-1.403930174662659,-0.3431542342317099,0.29839191972546875,0,0,0,1
1.781081725337341,1.29817691576829,-0.06797764027453122,0,0,0,1
1.781081725337341,1.29817691576829,-0.06797764027453122,0,0,0,1
1.781081725337341,1.29817691576829,-0.06797764027453122,0,0,0,1
2.202685825337341,0.05131802276829013,-0.9162316802745312,0,0,0,1
2.202685825337341,0.05131802276829013,-0.9162316802745312,0,0,0,1
-0.5450444046626591,-0.29839090423170983,-1.4180769802745312,0,0,0,1
-2.612738574662659,-0.6912457142317099,-1.2628233802745312,0,0,0,1
-2.612738574662659,-0.6912457142317099,-1.2628233802745312,0,0,0,1
-2.612738574662659,-0.6912457142317099,-1.2628233802745312,0,0,0,1
-3.0524062746626592,-0.5488129842317099,-0.7342139202745311,0,0,0,1
-3.0524062746626592,-0.5488129842317099,-0.7342139202745311,0,0,0,1
2.906439325337341,0.5947780757682901,-0.10526428027453123,0,0,0,1
2.0331359253373407,-0.03066761423170987,-0.8738421802745312,0,0,0,1
0.9078726953373409,-0.9999775842317099,-1.2008348802745312,0,0,0,1
0.9078726953373409,-0.9999775842317099,-1.2008348802745312,0,0,0,1
-3.2556519746626593,-0.09541539423170987,-0.9762697802745312,0,0,0,1
-3.2556519746626593,-0.09541539423170987,-0.9762697802745312,0,0,0,1
-3.178756274662659,0.9516653157682902,-0.35720030027453126,0,0,0,1
-3.178756274662659,0.9516653157682902,-0.35720030027453126,0,0,0,1
-3.178756274662659,0.9516653157682902,-0.35720030027453126,0,0,0,1
0.26955367533734087,0.5363768157682901,0.17076211972546876,0,0,0,1
0.26955367533734087,0.5363768157682901,0.17076211972546876,0,0,0,1
0.26955367533734087,0.5363768157682901,0.17076211972546876,0,0,0,1
3.3140473253373406,-0.6461972442317099,-1.0161657802745312,0,0,0,1
3.3140473253373406,-0.6461972442317099,-1.0161657802745312,0,0,0,1
1.079372925337341,-0.44465698423170985,-1.171048780274531,0,0,0,1
-1.862038074662659,-0.44132638423170983,-0.5904045802745311,0,0,0,1
-1.862038074662659,-0.44132638423170983,-0.5904045802745311,0,0,0,1
-1.124798274662659,0.14638261576829012,0.08116837972546877,0,0,0,1
-1.592587974662659,1.57634261576829,0.3592307197254688,0,0,0,1
1.464543825337341,0.8350073157682901,-0.30435243027453124,0,0,0,1
2.1148105253373406,-1.28415478423171,-0.5973335202745311,0,0,0,1
2.1148105253373406,-1.28415478423171,-0.5973335202745311,0,0,0,1
0.019488827337340895,-1.62772458423171,-1.068284580274531,0,0,0,1
0.019488827337340895,-1.62772458423171,-1.068284580274531,0,0,0,1
0.019488827337340895,-1.62772458423171,-1.068284580274531,0,0,0,1
-1.133370874662659,-0.27444104423170984,-1.2139590802745313,0,0,0,1
0.3182320753373409,1.09704081576829,-0.6250440202745312,0,0,0,1
0.3182320753373409,1.09704081576829,-0.6250440202745312,0,0,0,1
-0.49339054466265914,-0.8017249842317099,-0.6045980202745311,0,0,0,1
-0.049291117662659104,-2.09370538423171,0.043144611725468775,0,0,0,1
-1.109796974662659,1.86054331576829,0.6634077197254689,0,0,0,1
-1.109796974662659,1.86054331576829,0.6634077197254689,0,0,0,1
0.5011201253373408,0.5682595557682901,-0.1292653402745312,0,0,0,1
0.5011201253373408,0.5682595557682901,-0.1292653402745312,0,0,0,1
-0.4052977446626591,-1.58756328423171,-1.022387280274531,0,0,0,1
-0.4052977446626591,-1.58756328423171,-1.022387280274531,0,0,0,1
1.640368025337341,-0.6491651342317099,-1.1727187802745311,0,0,0,1
3.738853025337341,0.37564613576829015,-0.3402263202745312,0,0,0,1
2.0607237253373407,1.55699391576829,-0.19053200027453124,0,0,0,1
-0.1662564146626591,1.58640231576829,-0.4694611802745312,0,0,0,1
-2.7944650746626594,0.7904684757682902,0.46648698972546876,0,0,0,1
-2.7944650746626594,0.7904684757682902,0.46648698972546876,0,0,0,1
-1.371872374662659,1.50941091576829,-0.059302182274531226,0,0,0,1
2.1414952253373407,-0.28622408423170986,-0.7189666302745312,0,0,0,1
2.886825125337341,-1.6126506842317099,-1.5584851802745312,0,0,0,1
0.9007554253373409,-1.62944758423171,-1.8142747802745312,0,0,0,1
-0.19891212466265912,-0.9148645242317098,-1.075839580274531,0,0,0,1
-0.19891212466265912,-0.9148645242317098,-1.075839580274531,0,0,0,1
-0.013625605662659107,0.7824344857682901,-0.34356681027453123,0,0,0,1
-0.013625605662659107,0.7824344857682901,-0.34356681027453123,0,0,0,1
0.7314591553373408,2.5133030157682903,0.13525536972546878,0,0,0,1
-0.8068480346626591,-2.14340658423171,-0.7183769802745312,0,0,0,1
-1.461903074662659,-0.6439537842317099,-0.36858150027453124,0,0,0,1
-0.4897436946626591,1.19208491576829,0.07942416972546877,0,0,0,1
-0.4897436946626591,1.19208491576829,0.07942416972546877,0,0,0,1
0.3534789253373409,1.82271421576829,-0.14870653027453123,0,0,0,1
2.651364725337341,-0.22151723423170988,-1.243265880274531,0,0,0,1
2.651364725337341,-0.22151723423170988,-1.243265880274531,0,0,0,1
2.651364725337341,-0.22151723423170988,-1.243265880274531,0,0,0,1
2.515769525337341,-0.7693904442317099,-1.6028010802745312,0,0,0,1
-1.102446974662659,-0.33894501423170986,-0.8458190802745311,0,0,0,1
-1.102446974662659,-0.33894501423170986,-0.8458190802745311,0,0,0,1
-0.8871464746626591,-0.010827195231709871,0.42262675972546876,0,0,0,1
-0.8871464746626591,-0.010827195231709871,0.42262675972546876,0,0,0,1
-0.9773697746626591,1.6047580157682901,0.8730126197254688,0,0,0,1
-0.9773697746626591,1.6047580157682901,0.8730126197254688,0,0,0,1
-0.9773697746626591,1.6047580157682901,0.8730126197254688,0,0,0,1
1.270069625337341,-2.07354258423171,0.018844334725468773,0,0,0,1
-0.1270079446626591,0.14379813576829012,-0.9109429402745312,0,0,0,1
0.8212161253373409,0.6517988157682901,-1.4592355802745312,0,0,0,1
0.9811892653373409,0.5705488157682902,-1.1251889802745312,0,0,0,1
-0.5279679146626591,0.6891293157682902,-1.1785305802745312,0,0,0,1
-0.8619456146626591,0.33585684576829017,-0.18944946027453122,0,0,0,1
0.9649872953373408,0.2451814157682901,0.016242591725468773,0,0,0,1
1.215040725337341,0.9023424557682902,0.13912900972546877,0,0,0,1
-0.1530079746626591,0.41168891576829014,0.3822608897254688,0,0,0,1
-0.1530079746626591,0.41168891576829014,0.3822608897254688,0,0,0,1
-1.390756074662659,-0.28858468423170985,0.15616949972546876,0,0,0,1
-2.168669674662659,0.20284098576829013,0.3146387597254688,0,0,0,1
-1.633908774662659,0.9953199857682902,-0.27321198027453125,0,0,0,1
0.06550552033734089,1.33389381576829,-0.6037368802745312,0,0,0,1
0.06550552033734089,1.33389381576829,-0.6037368802745312,0,0,0,1
2.0354304253373408,-0.5466864542317098,-1.0530495802745312,0,0,0,1
2.0354304253373408,-0.5466864542317098,-1.0530495802745312,0,0,0,1
1.804853925337341,-1.40376398423171,-0.6951263302745312,0,0,0,1
0.0725064453373409,-0.9507147442317099,-0.2772441202745312,0,0,0,1
-1.383025674662659,0.06023928876829013,0.3253945397254688,0,0,0,1
-1.383025674662659,0.06023928876829013,0.3253945397254688,0,0,0,1
-0.5177912746626591,0.04242013576829013,0.5545376197254688,0,0,0,1
-0.5769619746626591,-1.2905191842317099,-0.6435505502745311,0,0,0,1
0.4765734853373409,-1.64485358423171,-0.7233453102745312,0,0,0,1
0.4765734853373409,-1.64485358423171,-0.7233453102745312,0,0,0,1
0.6195960253373409,0.14997741576829013,-1.157996880274531,0,0,0,1
0.5805096753373409,2.4532714157682904,-0.5512684802745311,0,0,0,1
0.6064934853373409,2.0246043157682903,-0.2633558802745312,0,0,0,1
-0.0010409194626591054,-0.6376634842317098,-0.10465458027453123,0,0,0,1
-0.0010409194626591054,-0.6376634842317098,-0.10465458027453123,0,0,0,1
-0.21062801466265912,-1.79247998423171,0.04378935572546878,0,0,0,1
-0.21062801466265912,-1.79247998423171,0.04378935572546878,0,0,0,1
-0.8298401746626591,-2.1687370842317097,0.9788484897254688,0,0,0,1
-0.5712094146626591,0.7532043157682902,1.1879074197254689,0,0,0,1
0.6022715753373409,1.63336401576829,0.5339034197254688,0,0,0,1
0.6022715753373409,1.63336401576829,0.5339034197254688,0,0,0,1
2.0987773253373407,1.0474582157682901,-1.0348838802745313,0,0,0,1
2.0987773253373407,1.0474582157682901,-1.0348838802745313,0,0,0,1
1.386982425337341,0.04426516976829013,-2.394433680274531,0,0,0,1
0.5397391253373409,-1.58904188423171,-2.5734256802745312,0,0,0,1
-1.681535274662659,0.6424208157682901,0.12170096972546876,0,0,0,1
-1.681535274662659,0.6424208157682901,0.12170096972546876,0,0,0,1
-1.593373774662659,2.01222291576829,1.6590542197254687,0,0,0,1
-0.41866062466265913,1.75827461576829,2.8972713197254687,0,0,0,1
-0.41866062466265913,1.75827461576829,2.8972713197254687,0,0,0,1
-0.41866062466265913,1.75827461576829,2.8972713197254687,0,0,0,1
2.2052331253373407,-0.5419568242317099,0.8969119197254688,0,0,0,1
1.596251025337341,-0.8366951842317099,-2.5113334802745313,0,0,0,1
-1.922316974662659,-0.7274931442317099,-2.7637171802745315,0,0,0,1
-1.922316974662659,-0.7274931442317099,-2.7637171802745315,0,0,0,1
-3.864275474662659,-0.42953483423170985,-2.0704433802745315,0,0,0,1
-3.864275474662659,-0.42953483423170985,-2.0704433802745315,0,0,0,1
-3.068123274662659,0.5352369757682901,-0.4980647802745312,0,0,0,1
-0.3080382146626591,1.16063071576829,0.9490296497254688,0,0,0,1
-0.3080382146626591,1.17099981576829,0.7922444597254689,0,0,0,1
3.707939725337341,1.08007361576829,1.164266919725469,0,0,0,1
3.707939725337341,1.08007361576829,1.164266919725469,0,0,0,1
0.9903893653373409,-1.13049228423171,-1.1998236802745312,0,0,0,1
-3.6171125746626593,-1.11574698423171,-0.6644840802745312,0,0,0,1
-1.477822774662659,2.16467361576829,0.10561832972546877,0,0,0,1
2.282677225337341,0.8016480157682901,-0.6071167302745312,0,0,0,1
2.349732925337341,-0.6941522842317098,-0.7630331802745312,0,0,0,1
2.349732925337341,-0.6941522842317098,-0.7630331802745312,0,0,0,1
1.636524725337341,-1.69362388423171,-0.8881105502745311,0,0,0,1
0.8658414253373409,-1.13720538423171,-1.0728917802745312,0,0,0,1
0.8658414253373409,-1.13720538423171,-1.0728917802745312,0,0,0,1
-0.7533173446626591,-0.10251967423170986,0.16988536972546878,0,0,0,1
-0.7533173446626591,-0.10251967423170986,0.16988536972546878,0,0,0,1
-2.781884274662659,1.29859331576829,0.8428296197254688,0,0,0,1
2.0905299253373406,-0.03677527423170987,0.3933428797254688,0,0,0,1
2.0905299253373406,-0.03677527423170987,0.3933428797254688,0,0,0,1
1.599260825337341,0.5975298157682901,-1.436400780274531,0,0,0,1
1.599260825337341,0.5975298157682901,-1.436400780274531,0,0,0,1
1.599260825337341,0.5975298157682901,-1.436400780274531,0,0,0,1
-0.1913914546626591,-0.5560469842317098,-1.3940496802745312,0,0,0,1
-2.4967155746626593,-0.6890160842317099,-0.5188837402745312,0,0,0,1
-2.4967155746626593,-0.6890160842317099,-0.5188837402745312,0,0,0,1
1.478640125337341,1.56358221576829,1.193955419725469,0,0,0,1
-0.2153248646626591,-0.9926012842317099,0.29640801972546876,0,0,0,1
-0.2153248646626591,-0.9926012842317099,0.29640801972546876,0,0,0,1
-0.3354267946626591,1.30009081576829,-0.6948381802745311,0,0,0,1
-0.3354267946626591,1.30009081576829,-0.6948381802745311,0,0,0,1
0.5984444753373409,2.2959735157682903,-0.27021411027453124,0,0,0,1
0.7369351253373408,1.70450121576829,-0.29247084027453124,0,0,0,1
0.7369351253373408,1.70450121576829,-0.29247084027453124,0,0,0,1
0.07305099533734088,0.6089948557682902,-0.5668601102745312,0,0,0,1
1.158869325337341,-0.25862968423170984,-0.9207262102745312,0,0,0,1
0.3074803553373409,-0.8547905542317099,-0.33901861027453123,0,0,0,1
0.3074803553373409,-0.8547905542317099,-0.33901861027453123,0,0,0,1
0.3074803553373409,-0.8547905542317099,-0.33901861027453123,0,0,0,1
0.3074803553373409,-0.8547905542317099,-0.33901861027453123,0,0,0,1
0.3074803553373409,-0.8547905542317099,-0.33901861027453123,0,0,0,1
-1.224891174662659,-0.5879308842317098,1.1498415197254688,0,0,0,1
-1.224891174662659,-0.5879308842317098,1.1498415197254688,0,0,0,1
0.9767565853373409,1.29516191576829,0.6075700797254688,0,0,0,1
-1.681338774662659,0.04742364976829013,-1.500316980274531,0,0,0,1
-1.681338774662659,0.04742364976829013,-1.500316980274531,0,0,0,1
-2.2332792746626593,1.32659811576829,-0.6812889802745312,0,0,0,1
-2.2332792746626593,1.32659811576829,-0.6812889802745312,0,0,0,1
-0.6520371246626591,1.51360211576829,-0.6924399402745312,0,0,0,1
-0.6520371246626591,1.51360211576829,-0.6924399402745312,0,0,0,1
0.6041150253373408,0.9880880157682902,-0.5598978102745312,0,0,0,1
1.118415325337341,-0.6805232842317098,-0.4083564602745312,0,0,0,1
0.8288169253373409,-0.8787477842317098,-0.05838969527453122,0,0,0,1
0.8288169253373409,-0.8787477842317098,-0.05838969527453122,0,0,0,1
-1.108373174662659,-0.8130335842317099,-0.16030815027453124,0,0,0,1
-1.108373174662659,-0.8130335842317099,-0.16030815027453124,0,0,0,1
0.3019042253373409,-1.08923938423171,0.6375998497254688,0,0,0,1
0.3019042253373409,-1.08923938423171,0.6375998497254688,0,0,0,1
1.197217525337341,-0.5771315842317098,0.45540209972546875,0,0,0,1
1.197217525337341,-0.5771315842317098,0.45540209972546875,0,0,0,1
1.197217525337341,-0.5771315842317098,0.45540209972546875,0,0,0,1
-1.553876374662659,-0.6868305842317098,-1.2359504802745311,0,0,0,1
-2.8583692746626594,-1.43274248423171,-1.682668480274531,0,0,0,1
-0.20542858466265912,-1.60703398423171,-0.6167454802745311,0,0,0,1
3.1300111253373406,-0.1793793542317099,0.5817155497254688,0,0,0,1
2.444007425337341,1.58564091576829,0.4105353597254688,0,0,0,1
2.444007425337341,1.58564091576829,0.4105353597254688,0,0,0,1
2.444007425337341,1.58564091576829,0.4105353597254688,0,0,0,1
0.24949982533734089,0.29966558576829017,1.0400987197254687,0,0,0,1
-0.3290695946626591,-1.3933933842317099,1.1047084197254688,0,0,0,1
-2.993402474662659,-0.7448025842317099,0.5025262497254688,0,0,0,1
-2.6196852746626593,0.9306175157682901,0.13974329972546878,0,0,0,1
-2.6196852746626593,0.9306175157682901,0.13974329972546878,0,0,0,1
