acc_x,acc_y,acc_z,gyro_x,gyro_y,gyro_z,label
-1.840220474662659,-1.4612886842317099,-1.674246380274531,0,0,0,1
-1.840220474662659,-1.4612886842317099,-1.674246380274531,0,0,0,1
-4.152540274662659,0.032356414768290126,-0.33556184027453123,0,0,0,1
2.1509166253373406,2.08162931576829,1.7907283197254689,0,0,0,1
2.1509166253373406,2.08162931576829,1.7907283197254689,0,0,0,1
2.1509166253373406,2.08162931576829,1.7907283197254689,0,0,0,1
3.2424474253373408,0.8939963757682902,0.8461795697254688,0,0,0,1
3.2424474253373408,0.8939963757682902,0.8461795697254688,0,0,0,1
2.2394127253373406,-2.02934258423171,-2.2195904802745314,0,0,0,1
-0.9199023046626591,-1.1815195842317099,-1.5336229802745311,0,0,0,1
-3.7287878746626593,0.6926507557682902,-1.1400544802745312,0,0,0,1
-2.6381887746626593,1.75506441576829,0.6227238197254689,0,0,0,1
0.4500336853373409,1.86583261576829,0.9817793197254688,0,0,0,1
0.4500336853373409,1.86583261576829,0.9817793197254688,0,0,0,1
2.6975121253373406,0.8711138157682902,-0.38833073027453124,0,0,0,1
3.537439725337341,-1.5033068842317099,-0.32534148027453125,0,0,0,1
2.980797325337341,-1.9797354842317099,-0.7548837802745312,0,0,0,1
2.980797325337341,-1.9797354842317099,-0.7548837802745312,0,0,0,1
-3.308499774662659,0.9160152857682902,0.7422188197254689,0,0,0,1
-3.308499774662659,0.9160152857682902,0.7422188197254689,0,0,0,1
0.15792132533734088,0.37707086576829013,0.8886123197254688,0,0,0,1
0.15792132533734088,0.37707086576829013,0.8886123197254688,0,0,0,1
3.1483217253373406,0.8848734657682902,-0.9310348302745312,0,0,0,1
3.0054737253373407,0.5276574657682901,-0.6805880802745312,0,0,0,1
0.6115460553373409,-0.007656451231709872,-0.9757279502745312,0,0,0,1
0.6115460553373409,-0.007656451231709872,-0.9757279502745312,0,0,0,1
-2.0947479746626594,-0.005310770231709871,-1.155165580274531,0,0,0,1
-3.538939974662659,-0.5321718842317098,-0.8576380302745312,0,0,0,1
-3.538939974662659,-0.5321718842317098,-0.8576380302745312,0,0,0,1
-2.387164074662659,-0.1909189842317099,0.07737248972546877,0,0,0,1
-0.27013252466265913,0.27580221576829017,1.1014443197254689,0,0,0,1
1.517404125337341,0.8944400157682901,1.1740975197254688,0,0,0,1
2.9800877253373406,0.7474055457682901,1.0600379197254688,0,0,0,1
3.926182325337341,0.5668318157682901,-0.23313257027453124,0,0,0,1
0.34049274533734086,0.21510514576829012,-1.521466180274531,0,0,0,1
-2.122160374662659,-0.28841808423170984,-1.8402590802745311,0,0,0,1
-2.122160374662659,-0.28841808423170984,-1.8402590802745311,0,0,0,1
-2.122160374662659,-0.28841808423170984,-1.8402590802745311,0,0,0,1
-2.908462974662659,0.9865001657682901,0.03603800972546878,0,0,0,1
-2.908462974662659,0.9865001657682901,0.03603800972546878,0,0,0,1
-2.908462974662659,0.9865001657682901,0.03603800972546878,0,0,0,1
-2.908462974662659,0.9865001657682901,0.03603800972546878,0,0,0,1
3.472616725337341,2.2735615157682902,1.862325919725469,0,0,0,1
3.472616725337341,2.2735615157682902,1.862325919725469,0,0,0,1
3.585932225337341,1.40117721576829,0.7461064697254688,0,0,0,1
3.585932225337341,1.40117721576829,0.7461064697254688,0,0,0,1
3.585932225337341,1.40117721576829,0.7461064697254688,0,0,0,1
2.6533341253373406,0.19913131576829013,-0.7081121802745312,0,0,0,1
0.3629107653373409,-2.90219158423171,-1.2501281802745312,0,0,0,1
-4.057414474662659,3.1205235157682902,0.36520978972546875,0,0,0,1
0.2702412753373409,0.5939060157682902,1.0311398197254689,0,0,0,1
0.2702412753373409,0.5939060157682902,1.0311398197254689,0,0,0,1
0.2702412753373409,0.5939060157682902,1.0311398197254689,0,0,0,1
3.7225652253373407,-2.2493142842317098,-0.6222884802745312,0,0,0,1
3.9580359253373407,-1.49399038423171,-0.7761387802745312,0,0,0,1
2.267948725337341,0.38820721576829015,-0.8363936302745312,0,0,0,1
-0.6184935446626592,0.8863724157682902,-0.17259655027453122,0,0,0,1
-0.6184935446626592,0.8863724157682902,-0.17259655027453122,0,0,0,1
-2.5782532746626594,1.11353221576829,0.025933412725468775,0,0,0,1
-3.4329672746626594,1.18737671576829,0.4789138997254688,0,0,0,1
-3.4329672746626594,1.18737671576829,0.4789138997254688,0,0,0,1
-3.4329672746626594,1.18737671576829,0.4789138997254688,0,0,0,1
-2.138126274662659,1.77168751576829,0.41382154972546875,0,0,0,1
2.5181317253373408,0.9904991557682902,-0.8900836802745312,0,0,0,1
2.5181317253373408,0.9904991557682902,-0.8900836802745312,0,0,0,1
3.0488553253373407,-1.06895948423171,-1.2703900802745312,0,0,0,1
-1.578707174662659,2.0395479157682903,0.24097024972546877,0,0,0,1
-1.578707174662659,2.0395479157682903,0.24097024972546877,0,0,0,1
-0.6196961246626591,0.08150975576829013,1.0301227197254688,0,0,0,1
3.2038169253373407,0.1937660157682901,-1.0651457802745312,0,0,0,1
3.2038169253373407,0.1937660157682901,-1.0651457802745312,0,0,0,1
2.763165025337341,0.02284361776829013,-1.872995980274531,0,0,0,1
0.23021652533734088,-0.6698449842317099,-1.9617076802745312,0,0,0,1
0.23021652533734088,-0.6698449842317099,-1.9617076802745312,0,0,0,1
-2.6715178746626593,-0.7382132842317098,-1.2549808802745313,0,0,0,1
-2.6715178746626593,-0.7382132842317098,-1.2549808802745313,0,0,0,1
-2.182507474662659,0.9883095157682902,1.6705938197254688,0,0,0,1
-2.182507474662659,0.9883095157682902,1.6705938197254688,0,0,0,1
0.1808524253373409,2.4842349157682904,2.2629127197254686,0,0,0,1
2.447353825337341,1.7262265157682901,1.1902934197254689,0,0,0,1
3.9330621253373406,-0.48547998423170985,-0.17817229027453124,0,0,0,1
-2.4395579746626592,0.17416756576829012,-0.36702433027453124,0,0,0,1
-2.4395579746626592,0.17416756576829012,-0.36702433027453124,0,0,0,1
-2.4395579746626592,0.17416756576829012,-0.36702433027453124,0,0,0,1
-2.4395579746626592,0.17416756576829012,-0.36702433027453124,0,0,0,1
2.3538137253373406,0.4656221757682901,-0.2586141802745312,0,0,0,1
3.6189589253373406,-0.39246622423170985,-1.418900080274531,0,0,0,1
3.6189589253373406,-0.39246622423170985,-1.418900080274531,0,0,0,1
3.6189589253373406,-0.39246622423170985,-1.418900080274531,0,0,0,1
2.3635077253373407,-1.32182998423171,-1.383760380274531,0,0,0,1
2.3635077253373407,-1.32182998423171,-1.383760380274531,0,0,0,1
-0.43015335466265914,-0.8982103842317098,-0.5495265802745312,0,0,0,1
-2.963271174662659,0.007777262168290128,0.6787590197254688,0,0,0,1
-3.0313562746626594,0.9414867157682901,1.0168582197254687,0,0,0,1
-0.5129170246626591,1.16881941576829,1.5817413197254688,0,0,0,1
2.1124263253373408,0.7650409157682901,0.8048368197254688,0,0,0,1
3.1681418253373406,0.5933486157682901,-0.22111359027453123,0,0,0,1
3.3361907253373406,0.7228474757682901,-0.6905168802745312,0,0,0,1
2.6662697253373406,0.29227458576829013,-1.1965707802745311,0,0,0,1
0.1883273253373409,-0.2471377042317099,-1.705511580274531,0,0,0,1
-2.837345074662659,-0.28734638423170983,-1.204678680274531,0,0,0,1
-3.2406182746626593,-0.2236744142317099,-1.2723463802745312,0,0,0,1
-3.2406182746626593,-0.2236744142317099,-1.2723463802745312,0,0,0,1
-0.6894306746626591,-0.2394287142317099,-0.03877431327453122,0,0,0,1
0.8821654253373409,0.02194081576829013,0.21994673972546877,0,0,0,1
0.8821654253373409,0.02194081576829013,0.21994673972546877,0,0,0,1
1.806633525337341,0.8933726757682902,0.4712326797254688,0,0,0,1
1.806633525337341,0.8933726757682902,0.4712326797254688,0,0,0,1
1.806633525337341,0.8933726757682902,0.4712326797254688,0,0,0,1
3.744809725337341,-0.007641535231709871,-0.2560522302745312,0,0,0,1
1.212050925337341,0.5114744157682901,-0.39952198027453123,0,0,0,1
-3.6039742746626593,0.5532653557682902,-0.3212732102745312,0,0,0,1
-1.698165374662659,-0.36563988423170984,-0.24725929027453122,0,0,0,1
0.4889130753373409,0.48131455576829013,-0.11979547027453123,0,0,0,1
2.3588071253373406,0.9296017157682901,-0.6968834102745312,0,0,0,1
2.3588071253373406,0.9296017157682901,-0.6968834102745312,0,0,0,1
2.3588071253373406,0.9296017157682901,-0.6968834102745312,0,0,0,1
0.5742840953373409,-0.33875564423170984,-1.0906184802745311,0,0,0,1
-1.115601074662659,-0.8891455842317099,-0.21616271027453124,0,0,0,1
-1.115601074662659,-0.8891455842317099,-0.21616271027453124,0,0,0,1
-1.138612274662659,-0.46701352423170983,0.03555521172546878,0,0,0,1
-0.1864838446626591,0.39653603576829016,0.5539192197254689,0,0,0,1
2.1451039253373407,0.7874169557682902,0.5193266197254688,0,0,0,1
2.1451039253373407,0.7874169557682902,0.5193266197254688,0,0,0,1
1.349283725337341,0.6624946757682901,-0.4840584102745312,0,0,0,1
1.349283725337341,0.6624946757682901,-0.4840584102745312,0,0,0,1
-1.288310474662659,0.42336181576829013,-0.7125544802745312,0,0,0,1
-1.563443674662659,-1.2639746842317099,-0.3369015802745312,0,0,0,1
-0.2828020746626591,-0.2380825742317099,-0.40004508027453123,0,0,0,1
-0.2828020746626591,-0.2380825742317099,-0.40004508027453123,0,0,0,1
-0.2828020746626591,-0.2380825742317099,-0.40004508027453123,0,0,0,1
1.214141425337341,1.66933091576829,-0.18025962027453124,0,0,0,1
1.516204325337341,-0.34842775423170985,-1.0912544802745312,0,0,0,1
-0.42350433466265913,-1.52533438423171,-1.1678707802745312,0,0,0,1
-0.42350433466265913,-1.52533438423171,-1.1678707802745312,0,0,0,1
-2.1559232746626593,-1.48405548423171,-0.24360076027453123,0,0,0,1
-2.1559232746626593,-1.48405548423171,-0.24360076027453123,0,0,0,1
-3.2488182746626593,-0.09451786823170986,-0.06580379727453123,0,0,0,1
0.4107289453373409,1.16060461576829,1.054300919725469,0,0,0,1
1.928542625337341,0.23092289576829012,0.49959551972546873,0,0,0,1
2.9970765253373406,-0.22807790423170987,-0.35340670027453125,0,0,0,1
2.9970765253373406,-0.22807790423170987,-0.35340670027453125,0,0,0,1
3.338333725337341,-0.17959911423170988,-1.3278789802745312,0,0,0,1
-0.9714836746626591,-1.0541297842317099,-1.2798895802745311,0,0,0,1
-3.389509274662659,-1.0945879842317099,-0.8978759802745312,0,0,0,1
-3.3521732746626594,0.39531671576829014,-0.07175192027453123,0,0,0,1
-3.3521732746626594,0.39531671576829014,-0.07175192027453123,0,0,0,1
-3.3521732746626594,0.39531671576829014,-0.07175192027453123,0,0,0,1
-0.9368891746626591,1.51441901576829,1.2240227197254687,0,0,0,1
-0.9368891746626591,1.51441901576829,1.2240227197254687,0,0,0,1
2.5947013253373408,-1.20250428423171,-0.7069401802745312,0,0,0,1
2.6441483253373406,-1.7143911842317099,-0.9639415802745311,0,0,0,1
0.8463969253373409,-0.5407415442317098,-0.5705104802745312,0,0,0,1
-1.616375474662659,1.26450841576829,-0.39516434027453123,0,0,0,1
-1.616375474662659,1.26450841576829,-0.39516434027453123,0,0,0,1
0.0506415523373409,-1.21171218423171,-0.19803318027453123,0,0,0,1
-0.7035536746626591,-1.05329628423171,-0.017623992274531226,0,0,0,1
-0.7035536746626591,-1.05329628423171,-0.017623992274531226,0,0,0,1
0.5668664253373409,-0.44935305423170985,-0.025727780274531226,0,0,0,1
0.5668664253373409,-0.44935305423170985,-0.025727780274531226,0,0,0,1
2.455038525337341,-0.7251225542317099,0.3154237197254688,0,0,0,1
2.455038525337341,-0.7251225542317099,0.3154237197254688,0,0,0,1
2.455038525337341,-0.7251225542317099,0.3154237197254688,0,0,0,1
-0.6671414246626591,0.12991544576829012,-0.38781163027453125,0,0,0,1
-0.1638378946626591,0.1906177457682901,-0.050351353274531226,0,0,0,1
-0.1638378946626591,0.1906177457682901,-0.050351353274531226,0,0,0,1
-0.9825882746626591,0.38339133576829015,-0.20936003027453123,0,0,0,1
-1.138911674662659,0.16999701576829013,-0.32233588027453125,0,0,0,1
-1.138911674662659,0.16999701576829013,-0.32233588027453125,0,0,0,1
-1.138911674662659,0.16999701576829013,-0.32233588027453125,0,0,0,1
-1.138911674662659,0.16999701576829013,-0.32233588027453125,0,0,0,1
2.6361737253373407,-1.30006478423171,-0.23185364027453123,0,0,0,1
-0.5345406346626591,0.04140393776829013,-0.6641350802745312,0,0,0,1
-0.2080254346626591,-0.49045984423170985,-0.3496306802745312,0,0,0,1
-0.2080254346626591,-0.49045984423170985,-0.3496306802745312,0,0,0,1
-0.5546536246626591,0.2178296057682901,-0.23725632027453122,0,0,0,1
-0.5546536246626591,0.2178296057682901,-0.23725632027453122,0,0,0,1
-0.5546536246626591,0.2178296057682901,-0.23725632027453122,0,0,0,1
0.06639148533734089,1.21816601576829,-0.20503166027453124,0,0,0,1
1.750226525337341,0.7333197157682901,-0.34970603027453123,0,0,0,1
2.145642725337341,-0.27781018423170983,-0.34091018027453124,0,0,0,1
0.2684998653373409,-1.2417776842317099,-0.3796237402745312,0,0,0,1
0.2684998653373409,-1.2417776842317099,-0.3796237402745312,0,0,0,1
-0.1728806346626591,-0.5678914842317099,0.023629216725468773,0,0,0,1
-0.6946978446626592,0.7825888157682901,0.18036761972546878,0,0,0,1
0.021548764337340896,-0.017077189231709873,0.053457943725468776,0,0,0,1
0.021548764337340896,-0.017077189231709873,0.053457943725468776,0,0,0,1
1.433560825337341,-1.49122068423171,-0.9076374802745312,0,0,0,1
1.343725725337341,-0.5555153842317099,-0.5431249502745312,0,0,0,1
1.343725725337341,-0.5555153842317099,-0.5431249502745312,0,0,0,1
-1.136585674662659,0.004808481468290129,-0.5128140202745312,0,0,0,1
-1.136585674662659,0.004808481468290129,-0.5128140202745312,0,0,0,1
0.2796740653373409,0.9854156157682902,0.39910676972546877,0,0,0,1
0.2796740653373409,0.9854156157682902,0.39910676972546877,0,0,0,1
1.263245125337341,0.9334205557682902,0.2535391997254688,0,0,0,1
1.263245125337341,0.9334205557682902,0.2535391997254688,0,0,0,1
0.9006304853373409,-1.47613888423171,-1.3168120802745311,0,0,0,1
0.9006304853373409,-1.47613888423171,-1.3168120802745311,0,0,0,1
0.9006304853373409,-1.47613888423171,-1.3168120802745311,0,0,0,1
0.09165431533734089,-0.25856568423170984,-0.6998470102745312,0,0,0,1
-1.425639574662659,1.43687981576829,-0.6263491802745311,0,0,0,1
-1.921497274662659,1.88631461576829,0.042925445725468775,0,0,0,1
-1.921497274662659,1.88631461576829,0.042925445725468775,0,0,0,1
-0.4967579746626591,0.6240749557682902,0.10545351972546876,0,0,0,1
1.295268525337341,-0.9403829842317099,0.19479706972546876,0,0,0,1
1.295268525337341,-0.9403829842317099,0.19479706972546876,0,0,0,1
2.067870725337341,-1.38989638423171,-0.2506174202745312,0,0,0,1
2.067870725337341,-1.38989638423171,-0.2506174202745312,0,0,0,1
-2.2996229746626593,0.9678922157682901,0.49560555972546877,0,0,0,1
-2.2996229746626593,0.9678922157682901,0.49560555972546877,0,0,0,1
-2.2996229746626593,0.9678922157682901,0.49560555972546877,0,0,0,1
-1.075623974662659,0.9065872157682902,0.2981347397254688,0,0,0,1
0.7608437653373409,0.5522533157682902,0.10268637372546877,0,0,0,1
1.864979325337341,-0.06495684023170988,-0.7993852202745312,0,0,0,1
1.864979325337341,-0.06495684023170988,-0.7993852202745312,0,0,0,1
2.2546754253373407,-0.8149615842317098,-1.0058652502745313,0,0,0,1
1.661868625337341,-1.3724612842317099,-1.1773200802745312,0,0,0,1
1.661868625337341,-1.3724612842317099,-1.1773200802745312,0,0,0,1
-2.255687674662659,0.37309061576829017,0.06323465572546877,0,0,0,1
-2.255687674662659,0.37309061576829017,0.06323465572546877,0,0,0,1
-0.8689722746626591,0.9051709157682901,0.9176513797254688,0,0,0,1
-0.8689722746626591,0.9051709157682901,0.9176513797254688,0,0,0,1
1.217692825337341,-0.8466990842317098,-0.4345810102745312,0,0,0,1
1.217692825337341,-0.8466990842317098,-0.4345810102745312,0,0,0,1
2.1020064253373407,-1.15777978423171,-0.9560681302745312,0,0,0,1
