acc_x,acc_y,acc_z,gyro_x,gyro_y,gyro_z,label
0.5875191853373409,0.7383197757682901,-0.27132645027453123,0,0,0,1
2.5045867253373406,-0.1708299342317099,-1.0924967802745311,0,0,0,1
2.5045867253373406,-0.1708299342317099,-1.0924967802745311,0,0,0,1
2.5045867253373406,-0.1708299342317099,-1.0924967802745311,0,0,0,1
-0.5796675746626591,-1.47782348423171,-0.6288666802745312,0,0,0,1
-0.5796675746626591,-1.47782348423171,-0.6288666802745312,0,0,0,1
-1.995168174662659,0.5160566757682902,0.7512820597254688,0,0,0,1
-0.027350886662659106,1.21898201576829,0.8701516197254688,0,0,0,1
1.815825925337341,0.5095131557682901,0.9694182197254688,0,0,0,1
1.815825925337341,0.5095131557682901,0.9694182197254688,0,0,0,1
1.425200925337341,-0.5358998842317099,0.4474540197254688,0,0,0,1
-0.2051415246626591,-1.37051728423171,0.31645026972546875,0,0,0,1
-1.038544174662659,-0.12978969423170988,0.37847503972546875,0,0,0,1
-1.038544174662659,-0.12978969423170988,0.37847503972546875,0,0,0,1
-1.038544174662659,-0.12978969423170988,0.37847503972546875,0,0,0,1
-0.5995754746626591,0.9759236157682901,0.038226809725468776,0,0,0,1
0.8431468253373409,0.5379610857682902,-0.4806574302745312,0,0,0,1
2.3033261253373407,-0.7922179842317099,-0.5092739802745312,0,0,0,1
2.178803025337341,-1.48415348423171,-0.5678186802745312,0,0,0,1
0.8985905853373409,-0.9184021842317098,-0.08625048527453123,0,0,0,1
0.8985905853373409,-0.9184021842317098,-0.08625048527453123,0,0,0,1
-0.06678722466265911,0.2552417357682901,0.5551402197254688,0,0,0,1
-0.6515974746626592,1.07855831576829,0.8401260197254689,0,0,0,1
-1.090514674662659,1.10411131576829,0.8764541197254688,0,0,0,1
0.3317294253373409,-1.33137168423171,0.2623493697254688,0,0,0,1
0.3317294253373409,-1.33137168423171,0.2623493697254688,0,0,0,1
0.8938508253373408,-1.57829178423171,-0.06890678527453123,0,0,0,1
0.7223744553373409,-0.11569149423170987,0.07238134572546877,0,0,0,1
0.8445668253373408,0.32018243576829014,0.23096472972546878,0,0,0,1
0.20764304533734088,0.2423186757682901,0.010125516725468773,0,0,0,1
0.20764304533734088,0.2423186757682901,0.010125516725468773,0,0,0,1
0.7405429253373409,-0.7109645442317098,0.33433794972546876,0,0,0,1
0.8225980253373409,-1.1821063842317099,0.3517225697254688,0,0,0,1
1.220210525337341,-0.14275966423170988,-0.8297921102745311,0,0,0,1
1.220210525337341,-0.14275966423170988,-0.8297921102745311,0,0,0,1
1.220210525337341,-0.14275966423170988,-0.8297921102745311,0,0,0,1
-1.060596974662659,-0.8747818842317099,-0.5141507102745312,0,0,0,1
-3.4808992746626592,-0.7181064842317099,-0.8568568802745312,0,0,0,1
-3.4808992746626592,-0.7181064842317099,-0.8568568802745312,0,0,0,1
-0.6002602446626591,-0.2130568442317099,0.9884840197254688,0,0,0,1
3.9429593253373407,0.9125078457682901,0.6387709197254688,0,0,0,1
4.902184025337341,-0.1471340442317099,-0.26926702027453125,0,0,0,1
3.3663697253373406,-1.61142638423171,-1.0677678802745312,0,0,0,1
-4.011118874662659,-1.62915318423171,-0.29159463027453125,0,0,0,1
-4.011118874662659,-1.62915318423171,-0.29159463027453125,0,0,0,1
-3.894587974662659,0.44002028576829016,1.0615254197254689,0,0,0,1
-0.7911896746626591,0.7761073157682902,0.37664767972546875,0,0,0,1
2.370990325337341,0.7761073157682902,0.37664767972546875,0,0,0,1
4.749351025337341,0.7529439157682901,0.5570690197254689,0,0,0,1
4.749351025337341,0.7529439157682901,0.5570690197254689,0,0,0,1
4.667760425337341,1.04744191576829,0.047786979725468776,0,0,0,1
0.5387711653373409,0.08686812576829013,-1.5398299802745312,0,0,0,1
0.5387711653373409,0.08686812576829013,-1.5398299802745312,0,0,0,1
-2.7982992746626594,0.049008268768290134,-1.0106065802745312,0,0,0,1
-3.1756500746626593,0.40056748576829015,0.3052649797254688,0,0,0,1
-0.7221731746626591,-0.49765424423170984,2.0891027197254686,0,0,0,1
-0.7221731746626591,-0.49765424423170984,2.0891027197254686,0,0,0,1
-0.7221731746626591,-0.49765424423170984,2.0891027197254686,0,0,0,1
2.6727919253373407,-0.5702137142317099,1.2949259197254688,0,0,0,1
1.236606125337341,-1.82828178423171,-0.3902161402745312,0,0,0,1
-0.7592072346626592,-1.75845378423171,-0.5771986802745311,0,0,0,1
-0.7592072346626592,-1.75845378423171,-0.5771986802745311,0,0,0,1
-0.7592072346626592,-1.75845378423171,-0.5771986802745311,0,0,0,1
-1.632410474662659,0.38921745576829014,-0.8627381802745312,0,0,0,1
-0.1624102446626591,0.6205626157682902,-0.8464015802745312,0,0,0,1
1.322542725337341,0.012184101768290129,-0.15015784027453122,0,0,0,1
1.322542725337341,0.012184101768290129,-0.15015784027453122,0,0,0,1
1.614091425337341,-0.5710626842317098,0.17881878972546877,0,0,0,1
-0.9165892446626591,0.9513262657682902,1.2069060197254688,0,0,0,1
0.2842288253373409,0.04338677576829013,0.19791513972546876,0,0,0,1
0.2842288253373409,0.04338677576829013,0.19791513972546876,0,0,0,1
1.096602925337341,-0.4978980842317099,-0.8485313802745311,0,0,0,1
0.8200144953373409,-0.44919518423170984,-1.4510874802745313,0,0,0,1
-0.4729046746626591,0.1686162257682901,-0.2552704802745312,0,0,0,1
-1.053362374662659,0.18155969576829012,0.3396507197254688,0,0,0,1
1.113317025337341,-1.03685018423171,0.9825238897254688,0,0,0,1
1.113317025337341,-1.03685018423171,0.9825238897254688,0,0,0,1
0.40446616533734087,-0.9748928842317098,0.7799793797254688,0,0,0,1
-0.5343289246626591,-0.8174035342317099,0.6216200197254689,0,0,0,1
-0.5343289246626591,-0.8174035342317099,0.6216200197254689,0,0,0,1
1.884693625337341,0.49895671576829015,-0.6420200202745312,0,0,0,1
1.884693625337341,0.49895671576829015,-0.6420200202745312,0,0,0,1
1.884693625337341,0.49895671576829015,-0.6420200202745312,0,0,0,1
1.884693625337341,0.49895671576829015,-0.6420200202745312,0,0,0,1
0.5917477753373409,1.77540241576829,-0.056530954274531225,0,0,0,1
-1.476699374662659,-1.18837618423171,-0.15392561027453122,0,0,0,1
-1.476699374662659,-1.18837618423171,-0.15392561027453122,0,0,0,1
0.09593154533734088,-1.96054908423171,0.17044156972546878,0,0,0,1
1.242104025337341,-1.33246348423171,0.4408114197254688,0,0,0,1
0.6416182653373409,0.0033425871682901285,0.7278442697254688,0,0,0,1
-0.2739548546626591,-0.41717098423170984,0.6820648197254688,0,0,0,1
-0.2739548546626591,-0.41717098423170984,0.6820648197254688,0,0,0,1
-1.123529874662659,-0.5730864842317098,0.11812045972546878,0,0,0,1
-0.5353855746626591,-0.47941343423170985,-0.14661493027453124,0,0,0,1
-0.5353855746626591,-0.47941343423170985,-0.14661493027453124,0,0,0,1
0.8267321753373409,0.02145900176829013,-0.5687286802745312,0,0,0,1
1.748347725337341,-0.07554398423170987,-0.7026703802745312,0,0,0,1
1.748347725337341,-0.07554398423170987,-0.7026703802745312,0,0,0,1
1.402641825337341,-0.35180406423170985,-0.18586670027453123,0,0,0,1
1.402641825337341,-0.35180406423170985,-0.18586670027453123,0,0,0,1
-0.7415404146626591,0.7003313457682901,0.21516547972546876,0,0,0,1
-0.027438624662659106,0.9367338157682902,0.43530007972546875,0,0,0,1
0.19011737533734088,1.13758341576829,0.7002737197254688,0,0,0,1
-0.036977274662659106,1.01970361576829,0.11573218372546877,0,0,0,1
0.6653676253373408,-0.6071501842317099,-0.061595218274531224,0,0,0,1
-0.6714358146626591,-0.8056844242317098,0.19777161972546878,0,0,0,1
-0.6714358146626591,-0.8056844242317098,0.19777161972546878,0,0,0,1
0.053533093337340895,0.7987742157682901,0.5354433197254689,0,0,0,1
0.8238291853373408,0.29515348576829015,0.3866209397254688,0,0,0,1
0.9093413253373409,-1.24204828423171,-0.21065970027453124,0,0,0,1
-0.8937992746626591,0.5863313157682901,-0.09075285627453122,0,0,0,1
-0.8937992746626591,0.5863313157682901,-0.09075285627453122,0,0,0,1
-0.8949713746626591,0.5732400157682901,-0.09933868027453123,0,0,0,1
-1.302185474662659,-0.13754878423170988,0.16413984972546877,0,0,0,1
-2.2499079746626593,-0.6959432842317098,0.04981472972546878,0,0,0,1
-1.822124974662659,-1.03533208423171,0.11882145972546876,0,0,0,1
3.985585725337341,0.03524221776829013,0.25418481972546875,0,0,0,1
3.3927483253373407,1.32197751576829,0.32616531972546875,0,0,0,1
1.669970025337341,1.90309081576829,-0.09035045027453123,0,0,0,1
-1.294010574662659,-0.07291803923170986,-0.32745192027453124,0,0,0,1
-1.294010574662659,-0.07291803923170986,-0.32745192027453124,0,0,0,1
-3.799145274662659,-0.1717727642317099,-0.8353936402745312,0,0,0,1
-0.8191218246626591,0.14872558576829012,0.016895732725468775,0,0,0,1
-0.8191218246626591,0.14872558576829012,0.016895732725468775,0,0,0,1
0.4699158853373409,0.9117560557682901,0.5015591197254688,0,0,0,1
0.4699158853373409,0.9117560557682901,0.5015591197254688,0,0,0,1
0.9791560253373409,0.9213546657682902,0.6583897797254689,0,0,0,1
3.4120984253373408,-1.81821388423171,0.04364890472546878,0,0,0,1
0.3843407753373409,-0.04751602923170987,-0.2530756602745312,0,0,0,1
0.3843407753373409,-0.04751602923170987,-0.2530756602745312,0,0,0,1
-0.8136219746626591,1.21054891576829,0.08873438972546877,0,0,0,1
-2.5241736746626593,0.7984497757682901,0.06862502372546878,0,0,0,1
-1.893222274662659,-1.20333148423171,-0.16323340027453123,0,0,0,1
-0.16096542466265912,-1.89528698423171,0.20810191972546876,0,0,0,1
-0.16096542466265912,-1.89528698423171,0.20810191972546876,0,0,0,1
1.902761025337341,-0.5978838842317099,0.18619685972546876,0,0,0,1
3.221565725337341,0.9288946157682901,0.42933758972546876,0,0,0,1
-0.06740711466265911,-1.02061868423171,-0.9064141802745311,0,0,0,1
-1.827539874662659,-1.99854088423171,-0.9064141802745311,0,0,0,1
-1.827539874662659,-1.99854088423171,-0.9064141802745311,0,0,0,1
-1.827539874662659,-1.99854088423171,-0.9064141802745311,0,0,0,1
-2.263318074662659,0.11423112576829013,0.7415798597254688,0,0,0,1
0.6104674253373409,0.6489777757682902,0.7031116797254688,0,0,0,1
1.098154525337341,-0.33698491423170984,0.4882418797254688,0,0,0,1
1.850511125337341,-1.53407978423171,0.31213977972546875,0,0,0,1
1.850511125337341,-1.53407978423171,0.31213977972546875,0,0,0,1
-0.11300705466265912,-0.012751561231709872,-0.20352039027453123,0,0,0,1
-0.2752766446626591,2.46645791576829,-0.7588333802745312,0,0,0,1
-0.2752766446626591,2.46645791576829,-0.7588333802745312,0,0,0,1
-0.2752766446626591,2.46645791576829,-0.7588333802745312,0,0,0,1
0.7842784253373409,1.54372051576829,-0.9201970802745312,0,0,0,1
0.4448809753373409,-0.08291588423170987,-1.3935735802745313,0,0,0,1
0.49542572533734086,-0.8470202542317099,-1.1355144802745312,0,0,0,1
1.319446125337341,-0.8528262842317098,-0.28300491027453123,0,0,0,1
1.061569725337341,-0.34461508423170983,0.21294247972546876,0,0,0,1
-0.24326179466265913,0.10706080576829013,0.7153688197254688,0,0,0,1
-0.3169016746626591,0.02137829676829013,0.8179191197254688,0,0,0,1
0.44926692533734086,-0.3559964842317099,0.9754421197254688,0,0,0,1
0.44926692533734086,-0.3559964842317099,0.9754421197254688,0,0,0,1
0.9788832853373409,-0.7769277542317099,-0.5525282802745312,0,0,0,1
0.9788832853373409,-0.7769277542317099,-0.5525282802745312,0,0,0,1
0.12907840533734088,0.9446435757682902,-0.06473410327453123,0,0,0,1
0.5456605253373409,0.41801671576829014,0.03354081372546878,0,0,0,1
0.15998698533734088,-0.19458190423170987,-0.15541126027453123,0,0,0,1
0.2833676453373409,-0.32458243423170985,0.15597049972546878,0,0,0,1
0.36145068533734087,0.5118937157682901,-0.4021016402745312,0,0,0,1
-0.1779904246626591,-0.35999540423170984,-0.9652710802745311,0,0,0,1
-0.4126934746626591,-0.07604245423170987,-0.8754617302745312,0,0,0,1
-0.4126934746626591,-0.07604245423170987,-0.8754617302745312,0,0,0,1
0.7870822253373408,0.6328527157682902,-0.19049478027453123,0,0,0,1
0.7870822253373408,0.6328527157682902,-0.19049478027453123,0,0,0,1
0.3991351253373409,-0.8838475842317098,0.020100711725468772,0,0,0,1
-0.29671810466265913,-0.8484487342317099,-0.20814702027453122,0,0,0,1
-0.29671810466265913,-0.8484487342317099,-0.20814702027453122,0,0,0,1
-0.8759779746626591,0.0029559914682901287,-0.026798771274531227,0,0,0,1
-0.8759779746626591,0.0029559914682901287,-0.026798771274531227,0,0,0,1
0.7408766953373409,0.8346029157682902,-0.055965514274531225,0,0,0,1
0.7131753253373408,0.7417536157682901,-0.32815084027453123,0,0,0,1
0.7131753253373408,0.7417536157682901,-0.32815084027453123,0,0,0,1
-0.3037104446626591,-0.27994838423170987,-0.3627180202745312,0,0,0,1
-0.3037104446626591,-0.27994838423170987,-0.3627180202745312,0,0,0,1
-0.8454260746626591,0.43416741576829015,-0.020157651274531226,0,0,0,1
0.7985587253373408,0.9982838157682902,0.4667775897254688,0,0,0,1
0.7985587253373408,0.9982838157682902,0.4667775897254688,0,0,0,1
0.7258105253373409,0.5768005157682902,0.16571807972546876,0,0,0,1
0.4463963653373409,-0.41917805423170984,-0.28563978027453124,0,0,0,1
0.4463963653373409,-0.41917805423170984,-0.28563978027453124,0,0,0,1
-0.037747844662659104,-1.01330448423171,-0.5571353202745312,0,0,0,1
-1.059090074662659,-0.043816727231709866,-0.46811058027453123,0,0,0,1
