acc_x,acc_y,acc_z,gyro_x,gyro_y,gyro_z,label
-0.7711796746626591,0.9874713557682901,-0.055025787274531224,0,0,0,1
2.7753959253373406,-0.20442113423170988,-0.8041805802745312,0,0,0,1
2.289132725337341,-0.45556328423170983,-0.8584584802745312,0,0,0,1
-0.24656532466265912,0.2451539557682901,-0.7259801302745311,0,0,0,1
-0.5875916346626591,0.5207238157682902,-0.40787241027453125,0,0,0,1
0.7880110853373409,-0.011666272231709872,0.35850294972546876,0,0,0,1
-1.545984774662659,0.47695751576829015,1.6682193197254689,0,0,0,1
-0.4549288546626591,1.77535391576829,1.6404690197254688,0,0,0,1
2.9039007253373406,0.37099565576829013,-1.037889080274531,0,0,0,1
2.9039007253373406,0.37099565576829013,-1.037889080274531,0,0,0,1
1.605059125337341,-2.16718268423171,-2.4454496802745314,0,0,0,1
1.605059125337341,-2.16718268423171,-2.4454496802745314,0,0,0,1
-4.410047474662659,1.00607871576829,-0.9378163802745312,0,0,0,1
-4.410047474662659,1.00607871576829,-0.9378163802745312,0,0,0,1
-2.1215972746626592,0.1896389757682901,1.7552011197254689,0,0,0,1
-2.1215972746626592,0.1896389757682901,1.7552011197254689,0,0,0,1
2.8622947253373408,0.31316803576829016,0.7068719197254688,0,0,0,1
4.286965725337341,0.35697706576829014,-0.16806683027453123,0,0,0,1
4.286965725337341,0.35697706576829014,-0.16806683027453123,0,0,0,1
0.7334819253373409,-2.6344870842317096,-0.7985230802745312,0,0,0,1
0.7334819253373409,-2.6344870842317096,-0.7985230802745312,0,0,0,1
-4.79732467466266,0.13582848576829012,-0.4438678802745312,0,0,0,1
-2.8965754746626593,1.67535311576829,0.3254003197254688,0,0,0,1
-2.8965754746626593,1.67535311576829,0.3254003197254688,0,0,0,1
-0.10092018466265912,1.42338411576829,0.3045489797254688,0,0,0,1
3.552912225337341,0.7483226857682902,0.16209574972546878,0,0,0,1
3.969677425337341,0.11474389576829012,-0.16239783027453122,0,0,0,1
2.2245889253373408,-0.32877962423170987,-1.4587886802745311,0,0,0,1
-0.07097385466265911,-0.18338070423170988,-1.3215796802745312,0,0,0,1
-2.5263948746626594,-1.08037278423171,-0.4918337202745312,0,0,0,1
-2.5263948746626594,-1.08037278423171,-0.4918337202745312,0,0,0,1
-1.566586974662659,1.18640401576829,1.3554890197254688,0,0,0,1
-1.566586974662659,1.18640401576829,1.3554890197254688,0,0,0,1
-0.22555301466265912,-0.5228747842317099,0.053528396725468774,0,0,0,1
0.5140099653373409,2.3223574157682902,0.17197617972546878,0,0,0,1
1.640502425337341,3.4477529157682905,-0.6000804802745312,0,0,0,1
-2.1054777746626594,-1.04331108423171,-1.0222280802745312,0,0,0,1
-2.1054777746626594,-1.04331108423171,-1.0222280802745312,0,0,0,1
-1.836996074662659,-0.34441353423170984,-0.4162173602745312,0,0,0,1
0.8726887853373408,-1.22396618423171,-0.08542445427453123,0,0,0,1
0.5068221253373408,-0.8114810442317099,0.37689643972546877,0,0,0,1
0.07474662533734089,0.24843077576829012,0.6265302597254688,0,0,0,1
0.07474662533734089,0.24843077576829012,0.6265302597254688,0,0,0,1
-0.8449787746626591,0.45415647576829016,-0.2731077402745312,0,0,0,1
-0.8449787746626591,0.45415647576829016,-0.2731077402745312,0,0,0,1
1.377449525337341,-1.28062408423171,-1.0151450802745312,0,0,0,1
1.377449525337341,-1.28062408423171,-1.0151450802745312,0,0,0,1
2.9814935253373407,-1.78000838423171,-1.3402242802745312,0,0,0,1
-1.694335474662659,0.9629105557682901,-0.9286464202745311,0,0,0,1
-2.065257074662659,0.8092152157682901,0.05541723972546878,0,0,0,1
-2.065257074662659,0.8092152157682901,0.05541723972546878,0,0,0,1
-0.3183197746626591,0.011566433768290129,-0.39425776027453124,0,0,0,1
2.3447375253373406,-1.74325658423171,-0.17724523027453123,0,0,0,1
2.3447375253373406,-1.74325658423171,-0.17724523027453123,0,0,0,1
2.194039725337341,-2.6829556842317097,-0.15042856027453122,0,0,0,1
0.0437302753373409,-1.40181538423171,0.6428635197254688,0,0,0,1
0.24535228533734088,0.37206561576829017,1.4835340197254687,0,0,0,1
0.24535228533734088,0.37206561576829017,1.4835340197254687,0,0,0,1
-0.3458742946626591,3.9198406157682903,0.4802413597254688,0,0,0,1
1.840133225337341,1.82644751576829,-0.6487097502745311,0,0,0,1
-1.913038274662659,-2.10598948423171,-2.8417346802745316,0,0,0,1
-1.913038274662659,-2.10598948423171,-2.8417346802745316,0,0,0,1
-1.913038274662659,-2.10598948423171,-2.8417346802745316,0,0,0,1
0.2016387153373409,-1.2946891842317099,-0.18668878027453123,0,0,0,1
2.090710225337341,2.3644872157682904,1.2493867197254689,0,0,0,1
3.0549550253373408,1.60569441576829,1.851058019725469,0,0,0,1
3.0549550253373408,1.60569441576829,1.851058019725469,0,0,0,1
3.0549550253373408,1.60569441576829,1.851058019725469,0,0,0,1
-2.0082330746626593,-0.7260426842317098,0.38747187972546876,0,0,0,1
-2.0082330746626593,-0.7260426842317098,0.38747187972546876,0,0,0,1
-2.0082330746626593,-0.7260426842317098,0.38747187972546876,0,0,0,1
-0.5948681746626591,-1.26447878423171,-0.08817405027453123,0,0,0,1
0.5165419753373409,-0.6164316342317099,-2.5209791802745314,0,0,0,1
-0.012221796662659105,-0.6119000842317098,-2.2678911802745314,0,0,0,1
-0.012221796662659105,-0.6119000842317098,-2.2678911802745314,0,0,0,1
-1.789330974662659,-0.2311320242317099,-0.9197610302745312,0,0,0,1
-0.2815022346626591,1.22305211576829,0.7938949197254688,0,0,0,1
3.5755095253373406,1.25460051576829,1.3475800197254688,0,0,0,1
3.5755095253373406,1.25460051576829,1.3475800197254688,0,0,0,1
4.06313572533734,1.21165941576829,0.9703448697254689,0,0,0,1
0.2855611053373409,-2.1823825842317097,-0.6682833802745312,0,0,0,1
0.2855611053373409,-2.1823825842317097,-0.6682833802745312,0,0,0,1
-1.942453374662659,-3.38465378423171,-0.7917618802745312,0,0,0,1
-5.245213274662659,-0.7520965142317099,-1.3682535802745313,0,0,0,1
-1.016574374662659,1.57606961576829,0.5708577197254688,0,0,0,1
2.329324225337341,1.50554571576829,0.33576127972546876,0,0,0,1
3.877077625337341,1.62216491576829,-0.17537335027453124,0,0,0,1
4.401202725337341,0.19154773576829012,-0.7521395402745312,0,0,0,1
2.314529925337341,-2.5450005842317096,-1.8276202802745312,0,0,0,1
-5.476814274662659,0.07777843576829013,0.16424208972546878,0,0,0,1
-2.585570774662659,1.85438961576829,1.6259411197254687,0,0,0,1
-2.585570774662659,1.85438961576829,1.6259411197254687,0,0,0,1
2.285737525337341,-1.09929928423171,-0.3453768202745312,0,0,0,1
2.285737525337341,-1.09929928423171,-0.3453768202745312,0,0,0,1
2.285737525337341,-1.09929928423171,-0.3453768202745312,0,0,0,1
2.662442725337341,0.35269926576829014,-2.4692661802745315,0,0,0,1
2.662442725337341,0.35269926576829014,-2.4692661802745315,0,0,0,1
2.662442725337341,0.35269926576829014,-2.4692661802745315,0,0,0,1
0.2617983953373409,0.6760965157682901,-3.0101616802745315,0,0,0,1
-5.972227574662659,1.70641771576829,0.8107826197254688,0,0,0,1
-6.913046274662659,0.7667684757682901,1.000404419725469,0,0,0,1
-3.7613725746626594,-1.61616778423171,1.7953197197254689,0,0,0,1
0.8942427753373409,-3.03948108423171,2.0987811197254684,0,0,0,1
5.270604725337341,-1.24648568423171,0.6794022597254689,0,0,0,1
5.453835025337341,0.35424824576829017,0.8247942197254688,0,0,0,1
3.337459125337341,1.26222471576829,-1.6912425802745312,0,0,0,1
3.337459125337341,1.26222471576829,-1.6912425802745312,0,0,0,1
-3.4903582746626594,-1.35819638423171,-3.3012838802745312,0,0,0,1
-5.415905974662659,-1.8633884842317099,-2.3919610802745312,0,0,0,1
-5.415905974662659,-1.8633884842317099,-2.3919610802745312,0,0,0,1
-5.415905974662659,-1.8633884842317099,-2.3919610802745312,0,0,0,1
2.6821370253373407,2.52442961576829,2.5570753197254685,0,0,0,1
2.6821370253373407,2.52442961576829,2.5570753197254685,0,0,0,1
5.664043725337341,-0.44497175423170987,0.18001889972546878,0,0,0,1
3.311842425337341,-2.6873087842317096,-1.5460820802745312,0,0,0,1
3.311842425337341,-2.6873087842317096,-1.5460820802745312,0,0,0,1
0.7752585553373409,-3.42928858423171,-2.144745180274531,0,0,0,1
-6.146526774662659,1.70962821576829,-0.8523999202745312,0,0,0,1
-0.21874092466265913,1.74169781576829,-1.0004914802745313,0,0,0,1
-0.21874092466265913,1.74169781576829,-1.0004914802745313,0,0,0,1
-0.21874092466265913,1.74169781576829,-1.0004914802745313,0,0,0,1
3.856563125337341,-1.46782698423171,-0.9472376802745311,0,0,0,1
3.856563125337341,-1.46782698423171,-0.9472376802745311,0,0,0,1
-0.5929226746626591,-0.9302389442317098,0.000115661725468774,0,0,0,1
-4.543576674662659,2.8722832157682903,0.9279211197254689,0,0,0,1
-2.3832778746626593,0.5491173157682901,0.23328436972546876,0,0,0,1
0.9519963253373409,-1.91873358423171,-0.23586199027453122,0,0,0,1
2.776074925337341,-1.39003498423171,-1.2473504802745312,0,0,0,1
2.776074925337341,-1.39003498423171,-1.2473504802745312,0,0,0,1
1.183270925337341,1.81483381576829,-0.41846660027453125,0,0,0,1
-2.571865574662659,-0.6187250442317098,-1.1717484802745313,0,0,0,1
-2.7510012746626593,-1.7564397842317099,-1.5085418802745312,0,0,0,1
-0.7825856046626591,-1.78145828423171,-0.28401986027453124,0,0,0,1
-0.7825856046626591,-1.78145828423171,-0.28401986027453124,0,0,0,1
1.097424025337341,2.9435582157682902,0.7025186697254688,0,0,0,1
2.0353217253373406,2.9339466157682903,0.41208231972546877,0,0,0,1
2.0353217253373406,2.9339466157682903,0.41208231972546877,0,0,0,1
0.8827681653373409,-1.24897288423171,-1.0216457802745311,0,0,0,1
-0.8224558746626591,-2.38723278423171,-1.7225159802745311,0,0,0,1
-0.8825220746626591,-1.64765948423171,-0.6972941502745311,0,0,0,1
-1.035706974662659,0.6341764157682901,-0.36048964027453123,0,0,0,1
-1.176785974662659,0.0049931887682901285,0.08590122972546876,0,0,0,1
-1.176785974662659,0.0049931887682901285,0.08590122972546876,0,0,0,1
0.5951752853373409,-0.25513924423170986,-0.022765787274531227,0,0,0,1
0.5960564753373409,-0.25704331423170984,-0.005018205974531225,0,0,0,1
0.5960564753373409,-0.25704331423170984,-0.005018205974531225,0,0,0,1
2.262216125337341,-1.1771563842317099,-0.6172095802745312,0,0,0,1
-2.476555774662659,0.6582504657682902,-0.29595080027453124,0,0,0,1
-0.7144045746626592,0.9588244757682901,0.025076774725468775,0,0,0,1
-0.7144045746626592,0.9588244757682901,0.025076774725468775,0,0,0,1
-0.6593079446626591,0.2057577557682901,-1.0735234802745313,0,0,0,1
-0.6593079446626591,0.2057577557682901,-1.0735234802745313,0,0,0,1
1.802883625337341,-1.81302258423171,-0.30092922027453123,0,0,0,1
2.9687419253373406,-2.14113828423171,-0.5021663002745312,0,0,0,1
0.6263318253373409,0.36648373576829013,0.04536264972546878,0,0,0,1
-1.339151874662659,2.16012091576829,0.8540332197254689,0,0,0,1
-0.8090901246626591,1.55400111576829,1.0500733197254688,0,0,0,1
-0.6361689446626592,0.43134959576829013,0.8420376197254689,0,0,0,1
-0.5213274746626592,-0.5909283842317099,-0.33211548027453125,0,0,0,1
-0.5213274746626592,-0.5909283842317099,-0.33211548027453125,0,0,0,1
2.997666825337341,-1.21651198423171,-0.9289819302745311,0,0,0,1
-1.194518574662659,2.08974931576829,-0.3053046202745312,0,0,0,1
-1.194518574662659,2.08974931576829,-0.3053046202745312,0,0,0,1
-0.9274754346626591,0.7320519157682901,-0.19226161027453123,0,0,0,1
-0.2342524346626591,0.2057375757682901,-0.5821836302745311,0,0,0,1
-0.2342524346626591,0.2057375757682901,-0.5821836302745311,0,0,0,1
1.308724925337341,-0.03969849423170987,-0.9221859802745311,0,0,0,1
-1.375293274662659,-0.44677648423170985,0.6398538197254688,0,0,0,1
-1.375293274662659,-0.44677648423170985,0.6398538197254688,0,0,0,1
-1.375293274662659,-0.44677648423170985,0.6398538197254688,0,0,0,1
-2.9093412746626592,0.8734451757682902,1.1253619197254687,0,0,0,1
-2.673302674662659,1.44406651576829,0.9683758897254688,0,0,0,1
1.868298025337341,-1.81528158423171,-0.17102888027453123,0,0,0,1
1.868298025337341,-1.81528158423171,-0.17102888027453123,0,0,0,1
0.9294457553373409,-2.1950542842317096,-1.2212898802745311,0,0,0,1
0.4506879053373409,1.33900131576829,-0.8514567802745312,0,0,0,1
0.4506879053373409,1.33900131576829,-0.8514567802745312,0,0,0,1
0.4506879053373409,1.33900131576829,-0.8514567802745312,0,0,0,1
0.9441857253373409,-0.6997607842317098,-0.34037683027453125,0,0,0,1
0.9441857253373409,-0.6997607842317098,-0.34037683027453125,0,0,0,1
1.129366425337341,0.01322822576829013,0.26493621972546877,0,0,0,1
-0.0030531722626591057,0.6404617157682901,0.5708159197254689,0,0,0,1
0.6225533653373408,-0.5848008242317099,0.22187539972546877,0,0,0,1
0.6225533653373408,-0.5848008242317099,0.22187539972546877,0,0,0,1
2.3381137340894136e-05,-0.8322356842317099,-0.024847837274531225,0,0,0,1
2.3381137340894136e-05,-0.8322356842317099,-0.024847837274531225,0,0,0,1
