acc_x,acc_y,acc_z,gyro_x,gyro_y,gyro_z,label
-0.3628163146626591,-2.1928991842317096,-1.401511680274531,0,0,0,1
-3.7638882746626594,-1.92853928423171,-3.9391357802745315,0,0,0,1
-4.998705874662659,0.33648784576829016,-2.0865199802745313,0,0,0,1
-4.998705874662659,0.33648784576829016,-2.0865199802745313,0,0,0,1
3.067050425337341,0.16862161576829013,0.4674840897254688,0,0,0,1
2.995757625337341,-0.6623469842317099,0.24912198972546878,0,0,0,1
2.3950953253373406,-0.9628362842317099,-1.106248780274531,0,0,0,1
-0.12135265466265911,-0.9628362842317099,-1.106248780274531,0,0,0,1
-4.547438274662659,0.10655299176829013,-0.17246619027453122,0,0,0,1
-1.973865474662659,-0.9687101842317098,1.4290578197254689,0,0,0,1
-1.973865474662659,-0.9687101842317098,1.4290578197254689,0,0,0,1
-0.5353998746626591,-1.42358408423171,1.0673983197254688,0,0,0,1
1.274584325337341,-0.7786147842317098,0.20944293972546876,0,0,0,1
4.34312772533734,-0.9504388842317099,0.12553485972546877,0,0,0,1
0.8443150653373409,-0.31784291423170985,-1.3803731802745312,0,0,0,1
0.8443150653373409,-0.31784291423170985,-1.3803731802745312,0,0,0,1
-3.6786894746626593,1.37881741576829,-0.7585995802745312,0,0,0,1
-3.246192474662659,0.6248117157682902,-0.020660670274531227,0,0,0,1
-3.246192474662659,0.6248117157682902,-0.020660670274531227,0,0,0,1
-2.0913829746626593,0.04170437576829013,0.6599321697254689,0,0,0,1
5.108143325337341,-1.52433538423171,0.34522851972546875,0,0,0,1
5.108143325337341,-1.52433538423171,0.34522851972546875,0,0,0,1
5.969924425337341,-1.18521178423171,0.5759445197254688,0,0,0,1
-5.020664274662659,-1.1736674842317099,0.22828259972546877,0,0,0,1
-5.020664274662659,-1.1736674842317099,0.22828259972546877,0,0,0,1
-5.023757874662659,-1.17575718423171,-0.5200773802745312,0,0,0,1
-4.822517274662659,-0.7085356542317098,0.21051891972546877,0,0,0,1
3.530206225337341,0.6298246157682902,-1.2000539802745311,0,0,0,1
4.141590725337341,0.8780407157682901,-1.110508080274531,0,0,0,1
4.141590725337341,0.8780407157682901,-1.110508080274531,0,0,0,1
0.6779017653373409,-1.26466238423171,-0.5351807202745311,0,0,0,1
-2.138362874662659,2.2446361157682904,1.0624567197254688,0,0,0,1
-2.138362874662659,2.2446361157682904,1.0624567197254688,0,0,0,1
-2.3283004746626594,-0.7276041342317099,-0.6708867802745312,0,0,0,1
-2.3283004746626594,-0.7276041342317099,-0.6708867802745312,0,0,0,1
-2.3283004746626594,-0.7276041342317099,-0.6708867802745312,0,0,0,1
-2.3283004746626594,-0.7276041342317099,-0.6708867802745312,0,0,0,1
2.767057925337341,1.39489511576829,-0.22592834027453124,0,0,0,1
-0.018963320662659107,0.5337604457682902,0.7139490197254689,0,0,0,1
-0.018963320662659107,0.5337604457682902,0.7139490197254689,0,0,0,1
-0.018963320662659107,0.5337604457682902,0.7139490197254689,0,0,0,1
-2.731682774662659,-1.58057508423171,0.48085328972546876,0,0,0,1
-0.9816174346626592,-0.34182468423170986,-0.13265505627453122,0,0,0,1
-0.9816174346626592,-0.34182468423170986,-0.13265505627453122,0,0,0,1
-0.9816174346626592,-0.34182468423170986,-0.13265505627453122,0,0,0,1
2.151351425337341,0.8722325157682902,-0.9056326502745312,0,0,0,1
0.5784192253373409,-0.3052561442317099,-1.1270920802745312,0,0,0,1
0.5784192253373409,-0.3052561442317099,-1.1270920802745312,0,0,0,1
-0.42939899466265913,0.32884171576829013,-0.6741180802745311,0,0,0,1
-0.42939899466265913,0.32884171576829013,-0.6741180802745311,0,0,0,1
-1.178534974662659,-0.1609724542317099,0.4389460997254688,0,0,0,1
0.05521918933734089,-1.39363118423171,1.323929719725469,0,0,0,1
0.05521918933734089,-1.39363118423171,1.323929719725469,0,0,0,1
1.341876525337341,-2.01279088423171,1.683104319725469,0,0,0,1
1.042650725337341,0.6217122857682902,-0.8514315202745312,0,0,0,1
1.673283125337341,1.27747951576829,-1.3951960802745311,0,0,0,1
1.673283125337341,1.27747951576829,-1.3951960802745311,0,0,0,1
0.4067979053373409,0.7397162157682902,-1.2171599802745312,0,0,0,1
1.571246625337341,-0.43067788423170983,0.16040500972546878,0,0,0,1
1.571246625337341,-0.43067788423170983,0.16040500972546878,0,0,0,1
1.334220425337341,-0.31889445423170987,1.1177407197254687,0,0,0,1
1.334220425337341,-0.31889445423170987,1.1177407197254687,0,0,0,1
-1.222536574662659,0.7202103157682902,0.8326431197254688,0,0,0,1
-3.0353698746626594,1.58447951576829,-0.34441796027453125,0,0,0,1
-0.7826742746626592,0.23259462576829013,-1.5967402802745312,0,0,0,1
-0.7826742746626592,0.23259462576829013,-1.5967402802745312,0,0,0,1
-0.7826742746626592,0.23259462576829013,-1.5967402802745312,0,0,0,1
1.164409225337341,-0.31032775423170983,0.3059241497254688,0,0,0,1
1.164409225337341,-0.31032775423170983,0.3059241497254688,0,0,0,1
0.9986424253373408,0.1886724757682901,1.137823919725469,0,0,0,1
0.9986424253373408,0.1886724757682901,1.137823919725469,0,0,0,1
-0.17911003466265912,0.18207262576829011,2.0400280197254688,0,0,0,1
-0.052761538662659105,0.8350078157682902,1.1155043197254688,0,0,0,1
-0.2926211146626591,0.45119847576829014,-0.27563313027453124,0,0,0,1
0.3281521953373409,-0.6757201842317099,-1.066987380274531,0,0,0,1
-0.12854431466265911,-1.21825948423171,-2.1697476802745315,0,0,0,1
-0.12734936066265912,-1.21907868423171,-2.1598356802745315,0,0,0,1
-0.12734936066265912,-1.21907868423171,-2.1598356802745315,0,0,0,1
0.2466654953373409,-0.02022163223170987,-2.580838480274531,0,0,0,1
-0.3065056746626591,0.2862873557682901,1.2045301197254688,0,0,0,1
-2.086901674662659,0.49223543576829015,1.7829921197254688,0,0,0,1
-2.086901674662659,0.49223543576829015,1.7829921197254688,0,0,0,1
-0.5489039246626591,-0.2776143642317099,1.9860482197254687,0,0,0,1
-1.108629674662659,-0.3877415142317099,-0.10396376427453123,0,0,0,1
-1.108629674662659,-0.3877415142317099,-0.10396376427453123,0,0,0,1
0.44091750533734086,-1.60092808423171,-0.9165445802745312,0,0,0,1
0.44091750533734086,-1.60092808423171,-0.9165445802745312,0,0,0,1
-0.4204554446626591,-0.31979818423170986,-1.4264066802745312,0,0,0,1
-0.4204554446626591,-0.31979818423170986,-1.4264066802745312,0,0,0,1
-0.4204554446626591,-0.31979818423170986,-1.4264066802745312,0,0,0,1
2.721643925337341,0.5559918457682902,-0.5198743802745311,0,0,0,1
3.589908125337341,-0.019995999231709874,-0.2969611002745312,0,0,0,1
-1.869085774662659,-1.27573368423171,1.1553180197254689,0,0,0,1
-1.869085774662659,-1.27573368423171,1.1553180197254689,0,0,0,1
-1.518322474662659,-1.4594308842317099,1.6445481197254688,0,0,0,1
-1.518322474662659,-1.4594308842317099,1.6445481197254688,0,0,0,1
-0.7251829746626591,0.7831037157682902,0.5593166197254689,0,0,0,1
2.8445649253373406,0.011009383768290129,-0.11048117427453123,0,0,0,1
3.8841882253373408,-0.48260356423170986,-0.5531833502745311,0,0,0,1
1.880619525337341,0.21702151576829012,-1.742566880274531,0,0,0,1
1.880619525337341,0.21702151576829012,-1.742566880274531,0,0,0,1
0.9190240253373408,-0.7537823842317098,-1.246832680274531,0,0,0,1
0.9190240253373408,-0.7537823842317098,-1.246832680274531,0,0,0,1
-4.656352074662659,1.23855971576829,0.23529365972546876,0,0,0,1
-2.948935474662659,0.5276794157682901,1.345885919725469,0,0,0,1
2.044697325337341,-0.7451549842317099,1.2314771197254688,0,0,0,1
2.044697325337341,-0.7451549842317099,1.2314771197254688,0,0,0,1
2.441911225337341,-0.04118199423170987,0.7254377197254688,0,0,0,1
-3.036841274662659,-0.03139824823170987,-1.555254680274531,0,0,0,1
-3.036841274662659,-0.03139824823170987,-1.555254680274531,0,0,0,1
-3.036841274662659,-0.03139824823170987,-1.555254680274531,0,0,0,1
-3.791747574662659,-0.10727680923170987,-0.7028426202745311,0,0,0,1
-0.4616846746626591,0.9686574157682901,1.2357193197254688,0,0,0,1
-0.4616846746626591,0.9686574157682901,1.2357193197254688,0,0,0,1
-0.4616846746626591,0.9686574157682901,1.2357193197254688,0,0,0,1
1.732483425337341,1.28803861576829,0.9315033797254688,0,0,0,1
2.4075246253373406,-1.1322790842317099,0.30104651972546875,0,0,0,1
0.4781127253373409,-0.7691803842317099,-0.35932068027453123,0,0,0,1
0.4781127253373409,-0.7691803842317099,-0.35932068027453123,0,0,0,1
-3.029978274662659,1.59791151576829,-1.4571001802745311,0,0,0,1
-4.3735372746626595,3.2640405157682904,-1.6212232802745312,0,0,0,1
-1.748493174662659,2.0268548157682904,0.5576668697254689,0,0,0,1
-1.748493174662659,2.0268548157682904,0.5576668697254689,0,0,0,1
2.9899545253373407,-1.77295978423171,0.17581221972546876,0,0,0,1
4.618935125337341,-3.53563548423171,-0.37932196027453124,0,0,0,1
-0.1923327246626591,-1.0651652842317099,1.0145463197254687,0,0,0,1
-0.1923327246626591,-1.0651652842317099,1.0145463197254687,0,0,0,1
-6.467412274662659,1.6138654157682901,1.4516372197254688,0,0,0,1
0.8140588253373409,-0.6732710442317098,0.6308407197254688,0,0,0,1
0.8140588253373409,-0.6732710442317098,0.6308407197254688,0,0,0,1
4.5372367253373405,-1.75983808423171,-0.6087116302745311,0,0,0,1
1.942453925337341,-0.27524353423170983,-1.2534310802745312,0,0,0,1
1.942453925337341,-0.27524353423170983,-1.2534310802745312,0,0,0,1
-4.7738956746626595,1.26996601576829,0.9784621197254688,0,0,0,1
1.248348725337341,0.0031282787082901288,-0.18728855027453123,0,0,0,1
1.248348725337341,0.0031282787082901288,-0.18728855027453123,0,0,0,1
2.243915125337341,-0.31229786423170985,-0.31489958027453124,0,0,0,1
0.056149975337340896,1.34040651576829,0.2576963597254688,0,0,0,1
0.056149975337340896,1.34040651576829,0.2576963597254688,0,0,0,1
-1.569940074662659,2.6141241157682904,1.4257731197254688,0,0,0,1
-4.607073774662659,1.25226031576829,0.8140951197254688,0,0,0,1
-3.027564074662659,-1.12339708423171,0.6072523197254688,0,0,0,1
-0.2529473146626591,-2.16877558423171,-0.3294266802745312,0,0,0,1
4.6091781253373405,0.12524395076829012,-1.1444587802745312,0,0,0,1
4.865867125337341,0.41491224576829017,-1.3831555802745312,0,0,0,1
0.2442422053373409,-0.5272811842317099,-3.2990963802745314,0,0,0,1
0.2442422053373409,-0.5272811842317099,-3.2990963802745314,0,0,0,1
-3.5452661746626593,2.84261231576829,1.9851522197254687,0,0,0,1
-3.5452661746626593,2.84261231576829,1.9851522197254687,0,0,0,1
-3.5452661746626593,2.84261231576829,1.9851522197254687,0,0,0,1
1.327711625337341,1.63996031576829,2.3132863197254685,0,0,0,1
2.693131025337341,-1.63313508423171,-1.0002585802745312,0,0,0,1
3.2546773253373407,-2.2848174842317097,-2.0508530802745315,0,0,0,1
3.2546773253373407,-2.2848174842317097,-2.0508530802745315,0,0,0,1
-0.6423058346626591,0.2378266757682901,-1.346367780274531,0,0,0,1
-4.144759274662659,1.87315441576829,-0.12557378527453122,0,0,0,1
-1.444124674662659,-0.1477330142317099,0.9346948597254688,0,0,0,1
-0.4529862246626591,-1.27110608423171,1.6170053197254688,0,0,0,1
3.3718477253373407,-1.60859078423171,0.9263092597254688,0,0,0,1
4.9519792253373405,-1.56160638423171,0.8187797197254688,0,0,0,1
2.8047757253373407,-0.6345482842317098,-0.35523513027453124,0,0,0,1
-0.4161333746626591,0.2423321757682901,-0.7739625302745312,0,0,0,1
-2.728017274662659,0.8066579157682902,-0.36446265027453123,0,0,0,1
-2.728017274662659,0.8066579157682902,-0.36446265027453123,0,0,0,1
-2.9378366746626594,1.40298871576829,-0.0020888162745312253,0,0,0,1
-2.9378366746626594,1.40298871576829,-0.0020888162745312253,0,0,0,1
4.226310225337341,0.41093781576829014,-0.07766250027453123,0,0,0,1
4.226310225337341,0.41093781576829014,-0.07766250027453123,0,0,0,1
3.295397325337341,-0.5410980842317099,-0.23342136027453123,0,0,0,1
3.295397325337341,-0.5410980842317099,-0.23342136027453123,0,0,0,1
0.9618888253373409,-1.59623288423171,-0.9478446802745312,0,0,0,1
0.9618888253373409,-1.59623288423171,-0.9478446802745312,0,0,0,1
-2.158677074662659,-0.23124305423170988,1.0380736197254687,0,0,0,1
-3.4307283746626593,2.7359765157682903,1.3174383197254689,0,0,0,1
-3.4307283746626593,2.7359765157682903,1.3174383197254689,0,0,0,1
2.3784567253373408,-1.06393308423171,-1.2348179802745312,0,0,0,1
0.7680392253373409,-3.18884588423171,-2.0715844802745313,0,0,0,1
