acc_x,acc_y,acc_z,gyro_x,gyro_y,gyro_z,label
-1.093507274662659,0.1499756657682901,0.5301546697254689,0,0,0,1
-1.093507274662659,0.1499756657682901,0.5301546697254689,0,0,0,1
-1.093507274662659,0.1499756657682901,0.5301546697254689,0,0,0,1
1.641977825337341,0.6893911557682901,-0.03181961327453123,0,0,0,1
-0.3163513946626591,0.48283486576829016,-0.5015557102745312,0,0,0,1
-0.7467551046626592,-0.5429171842317099,-0.7711460802745311,0,0,0,1
-0.3876051746626591,-0.7633000442317098,-0.34957364027453125,0,0,0,1
1.677385825337341,1.34452941576829,0.3917735497254688,0,0,0,1
-1.892370174662659,-1.75405538423171,-0.45155063027453124,0,0,0,1
-1.662658174662659,-1.09850908423171,-0.15889767027453122,0,0,0,1
-1.662658174662659,-1.09850908423171,-0.15889767027453122,0,0,0,1
1.826173325337341,0.7792012157682902,0.07931836972546877,0,0,0,1
2.451184725337341,0.5682031157682902,0.012589780725468774,0,0,0,1
2.451184725337341,0.5682031157682902,0.012589780725468774,0,0,0,1
1.720100925337341,-0.2399080342317099,-0.4616611302745312,0,0,0,1
1.720100925337341,-0.2399080342317099,-0.4616611302745312,0,0,0,1
-2.161153774662659,0.5465460157682901,0.020987836725468775,0,0,0,1
-0.6815581146626591,0.7571443157682901,0.2597760797254688,0,0,0,1
1.2854428253373409,0.18910092576829013,-0.12892440027453123,0,0,0,1
1.2854428253373409,0.18910092576829013,-0.12892440027453123,0,0,0,1
0.41042377533734087,0.22101435576829012,0.007469741725468775,0,0,0,1
-1.230795374662659,0.9196542657682901,0.17194661972546876,0,0,0,1
-0.8248886746626591,-0.03467393423170987,0.030622809725468773,0,0,0,1
-0.8248886746626591,-0.03467393423170987,0.030622809725468773,0,0,0,1
2.380246725337341,-1.13945098423171,0.20741518972546877,0,0,0,1
1.461907925337341,0.1887192457682901,-0.14453545027453124,0,0,0,1
-2.620159174662659,0.5848561757682902,0.026601999725468773,0,0,0,1
-1.003348814662659,0.5418826557682901,0.06997069572546877,0,0,0,1
-1.010220074662659,0.30449404576829014,0.3013511597254688,0,0,0,1
1.079301325337341,-0.9103032142317099,0.033210126725468775,0,0,0,1
0.5293278853373409,-0.8748490842317098,-0.20378795027453123,0,0,0,1
0.6944194253373409,0.8936038757682901,-0.09890488027453123,0,0,0,1
0.1359410453373409,-0.6439056242317098,-0.2542007302745312,0,0,0,1
0.1359410453373409,-0.6439056242317098,-0.2542007302745312,0,0,0,1
-0.5348582146626591,-0.00984664623170987,-0.2555432602745312,0,0,0,1
-0.5348582146626591,-0.00984664623170987,-0.2555432602745312,0,0,0,1
-0.43598221466265913,0.28608186576829014,0.18848057972546878,0,0,0,1
0.6877751253373409,0.05098834276829013,-0.20469704027453123,0,0,0,1
0.022123829337340896,0.33164771576829016,-0.5124396402745311,0,0,0,1
-0.5155062746626591,1.00674631576829,0.32313629972546876,0,0,0,1
-0.5155062746626591,1.00674631576829,0.32313629972546876,0,0,0,1
-0.6775679446626591,0.5839101157682901,0.38743801972546876,0,0,0,1
-0.2285694946626591,-0.3414944542317099,-0.23487154027453122,0,0,0,1
-0.2285694946626591,-0.3414944542317099,-0.23487154027453122,0,0,0,1
0.49625636533734085,0.5558802657682902,-0.08651426627453122,0,0,0,1
0.49625636533734085,0.5558802657682902,-0.08651426627453122,0,0,0,1
0.2874694053373409,0.37470095576829016,-0.14475086027453124,0,0,0,1
0.12436916533734088,-0.46902574423170984,-0.06378975627453122,0,0,0,1
0.21556522533734088,0.43627096576829016,-0.09845629527453123,0,0,0,1
0.3715729853373409,0.16924471576829012,-0.2698735302745312,0,0,0,1
0.3169541553373409,-0.5733652542317098,-0.40965822027453125,0,0,0,1
-0.15794132466265912,-1.00532258423171,-0.33077898027453123,0,0,0,1
-0.38077972466265914,-0.43296188423170984,-0.06588092627453122,0,0,0,1
-0.3432707746626591,-0.14109404423170988,0.07974716972546878,0,0,0,1
-0.8221697746626591,-0.24348385423170987,0.005556671725468775,0,0,0,1
0.13710262533734088,0.5451723557682902,0.23082324972546878,0,0,0,1
2.040366725337341,0.27290411576829016,-0.5646759802745311,0,0,0,1
1.253986825337341,-1.06277308423171,-0.6924104802745312,0,0,0,1
-1.756139274662659,-0.23280258423170988,0.19881566972546877,0,0,0,1
-1.756139274662659,-0.23280258423170988,0.19881566972546877,0,0,0,1
-0.4511771046626591,0.5437528657682902,0.37694486972546876,0,0,0,1
0.9073748753373408,-0.7397385842317099,0.06356700972546878,0,0,0,1
-0.17988251466265912,0.44855617576829016,-0.12204185027453122,0,0,0,1
-0.9093432246626592,0.8668429157682901,-0.04623881027453122,0,0,0,1
-0.7482113746626591,-0.5324136442317099,-0.6972626802745312,0,0,0,1
-0.7482113746626591,-0.5324136442317099,-0.6972626802745312,0,0,0,1
0.3522839753373409,0.38020099576829014,-0.18377998027453124,0,0,0,1
-0.6385893746626591,0.6159375457682902,0.2796740197254688,0,0,0,1
-0.6385893746626591,0.6159375457682902,0.2796740197254688,0,0,0,1
-0.6385893746626591,0.6159375457682902,0.2796740197254688,0,0,0,1
-0.24820850466265912,1.90858381576829,-0.13445690027453122,0,0,0,1
1.376888725337341,0.8340191157682901,-0.3858296002745312,0,0,0,1
-0.5802025746626591,-0.43412743423170985,0.19674416972546876,0,0,0,1
0.2906108053373409,0.5798964657682901,0.9960867197254688,0,0,0,1
0.32024528533734087,1.21276451576829,0.7600853197254688,0,0,0,1
0.32024528533734087,1.21276451576829,0.7600853197254688,0,0,0,1
1.026664225337341,0.37127448576829014,0.7183146197254688,0,0,0,1
-1.126684674662659,-0.05776341623170987,-0.17438510027453122,0,0,0,1
0.5139794253373409,-0.18936764423170988,-0.5397927802745311,0,0,0,1
0.5713477253373409,1.31720541576829,-0.38046435027453124,0,0,0,1
-0.1281361446626591,0.7829257157682902,0.28795251972546876,0,0,0,1
-1.133095274662659,-0.32937232423170987,0.034811465725468775,0,0,0,1
0.8236088953373409,-0.6104724242317099,-0.008141668174531226,0,0,0,1
0.4291119753373409,0.5772000757682901,-0.16175011027453123,0,0,0,1
-1.411250574662659,-0.3438599842317099,-0.2542409002745312,0,0,0,1
-1.411250574662659,-0.3438599842317099,-0.2542409002745312,0,0,0,1
1.477498525337341,0.36039711576829014,0.19013281972546878,0,0,0,1
2.3075213253373406,0.5292979657682901,0.18464788972546878,0,0,0,1
-0.1707663346626591,-0.6787907842317099,-0.42827860027453124,0,0,0,1
-1.725644074662659,-0.9795769842317098,-0.4914950402745312,0,0,0,1
-0.6020006746626592,-0.7141236442317098,0.009612767725468773,0,0,0,1
1.674596325337341,-0.36459448423170987,0.2915163897254688,0,0,0,1
2.5771967253373407,0.2741780757682901,0.40137549972546877,0,0,0,1
-1.274517474662659,-0.11367878423170986,0.23682042972546877,0,0,0,1
-2.033139274662659,0.07540995576829013,0.16805216972546877,0,0,0,1
-1.208276274662659,0.46260311576829016,-0.016634138274531224,0,0,0,1
1.689759725337341,-0.2189155342317099,-0.6413852302745312,0,0,0,1
1.689759725337341,-0.2189155342317099,-0.6413852302745312,0,0,0,1
1.689759725337341,-0.2189155342317099,-0.6413852302745312,0,0,0,1
-0.7758993746626591,-1.23458008423171,-0.2527150202745312,0,0,0,1
0.4732527853373409,0.41561894576829017,0.47661336972546875,0,0,0,1
-0.9314970746626591,-0.5531038842317099,-0.6468059102745312,0,0,0,1
-0.9314970746626591,-0.5531038842317099,-0.6468059102745312,0,0,0,1
-1.978373074662659,0.11529627576829013,-0.5452563802745312,0,0,0,1
-0.3828825746626591,1.51640051576829,-0.17638710027453122,0,0,0,1
1.665888325337341,-0.5014768842317099,-0.4069031802745312,0,0,0,1
0.3735890553373409,-0.9229753842317099,0.16902550972546876,0,0,0,1
1.036861925337341,0.04849740576829013,-0.29790250027453125,0,0,0,1
1.036861925337341,0.04849740576829013,-0.29790250027453125,0,0,0,1
0.9024520253373409,-0.9413059842317099,-0.5871573802745311,0,0,0,1
-0.19498298466265912,-1.19213098423171,-0.8186553802745312,0,0,0,1
-1.126196374662659,-0.8010134542317099,-0.5722876802745311,0,0,0,1
-0.3245148546626591,0.30357981576829013,0.46989091972546876,0,0,0,1
1.934309525337341,0.3273312957682901,0.4503318997254688,0,0,0,1
1.934309525337341,0.3273312957682901,0.4503318997254688,0,0,0,1
1.737526425337341,0.10815195576829013,0.10704060972546878,0,0,0,1
1.737526425337341,0.10815195576829013,0.10704060972546878,0,0,0,1
-0.9038290746626592,0.24493213576829012,-0.42571428027453123,0,0,0,1
1.021812025337341,-0.40161342423170987,-0.2532204702745312,0,0,0,1
1.021812025337341,-0.40161342423170987,-0.2532204702745312,0,0,0,1
1.411244925337341,-0.42974118423170987,-0.07186976027453124,0,0,0,1
0.6694922653373409,0.048246059768290134,0.22356685972546878,0,0,0,1
-0.5272564746626591,-0.30009363423170987,0.2839536397254688,0,0,0,1
-0.1427349846626591,-0.5219109442317098,-0.09949949527453122,0,0,0,1
-0.1427349846626591,-0.5219109442317098,-0.09949949527453122,0,0,0,1
0.5471167753373409,0.8658715157682901,-0.17866686027453124,0,0,0,1
0.6071896753373409,0.2994002157682901,-0.8669589802745312,0,0,0,1
-0.6267523746626591,0.24212992576829012,0.30177494972546876,0,0,0,1
0.17957164533734088,0.9235141457682902,0.44865878972546874,0,0,0,1
0.17957164533734088,0.9235141457682902,0.44865878972546874,0,0,0,1
0.17957164533734088,0.9235141457682902,0.44865878972546874,0,0,0,1
-0.4545397746626591,-0.15904907423170989,-0.5061873502745312,0,0,0,1
-0.4545397746626591,-0.15904907423170989,-0.5061873502745312,0,0,0,1
-0.4545397746626591,-0.15904907423170989,-0.5061873502745312,0,0,0,1
0.055590168337340894,1.07439911576829,-0.5292554202745312,0,0,0,1
-0.4093680246626591,0.32816831576829014,-0.48078206027453124,0,0,0,1
0.6231951853373409,0.15484033576829012,0.16656001972546877,0,0,0,1
0.40352584533734087,-0.1970757542317099,0.34383209972546874,0,0,0,1
-0.19975899466265912,-0.29236595423170986,0.30717023972546875,0,0,0,1
-0.6919779746626591,-0.2894675842317099,0.03675445772546878,0,0,0,1
0.10996009533734089,-0.28144268423170987,-0.46401993027453126,0,0,0,1
-0.031781657662659106,0.29334603576829016,-0.08172229027453123,0,0,0,1
0.003911511337340895,0.6485351457682902,-0.019284637274531224,0,0,0,1
0.003911511337340895,0.6485351457682902,-0.019284637274531224,0,0,0,1
0.003911511337340895,0.6485351457682902,-0.019284637274531224,0,0,0,1
-1.186325574662659,-0.38342568423170986,0.11454173972546877,0,0,0,1
-0.7039665746626591,-0.2142916742317099,0.18558212972546878,0,0,0,1
0.18524982533734088,0.39063589576829016,0.10343095472546877,0,0,0,1
0.9522929253373409,-0.2175898242317099,-0.3898110802745312,0,0,0,1
0.9522929253373409,-0.2175898242317099,-0.3898110802745312,0,0,0,1
-1.058106874662659,0.32516066576829017,-0.022376330274531224,0,0,0,1
0.033070105337340894,0.9472304757682901,0.20956083972546877,0,0,0,1
0.9400868553373409,0.5137864557682902,-0.03840938327453122,0,0,0,1
1.117094525337341,-0.3557544442317099,-0.18984392027453123,0,0,0,1
0.9116072853373409,-0.9921307342317098,-0.26234010027453125,0,0,0,1
-0.5552153446626591,-0.12952314423170988,0.11030491972546877,0,0,0,1
-0.14565227466265912,0.9334603757682901,0.4773108597254688,0,0,0,1
-0.14565227466265912,0.9334603757682901,0.4773108597254688,0,0,0,1
0.9801659753373408,0.09851171576829013,-0.09016100027453124,0,0,0,1
0.9801659753373408,0.09851171576829013,-0.09016100027453124,0,0,0,1
1.216697225337341,-0.34764332423170985,-0.25417116027453124,0,0,0,1
0.6011843853373409,-0.49500448423170984,-0.24664346027453124,0,0,0,1
-1.003176174662659,-0.17990247423170988,0.07120701472546877,0,0,0,1
-1.003176174662659,-0.17990247423170988,0.07120701472546877,0,0,0,1
0.35035850533734086,-0.013214659231709872,0.3374610797254688,0,0,0,1
1.640486225337341,0.18565693576829012,0.13396092972546877,0,0,0,1
-0.1775441046626591,-0.37017602423170987,0.09227939972546877,0,0,0,1
-1.028985474662659,-0.13213215423170988,0.15548535972546876,0,0,0,1
1.047438125337341,-0.6765336842317099,-0.46778205027453124,0,0,0,1
1.047438125337341,-0.6765336842317099,-0.46778205027453124,0,0,0,1
1.926477925337341,-0.7804023442317098,-0.40842715027453125,0,0,0,1
0.2949710053373409,0.2511917557682901,0.3539054197254688,0,0,0,1
0.2949710053373409,0.2511917557682901,0.3539054197254688,0,0,0,1
0.2949710053373409,0.2511917557682901,0.3539054197254688,0,0,0,1
-0.1328883046626591,0.06263201276829013,-0.08356443027453123,0,0,0,1
-0.11404178966265911,0.7203466157682902,-0.37549808027453124,0,0,0,1
0.25594282533734086,0.31317009576829014,-0.29699555027453123,0,0,0,1
1.538849325337341,0.33245755576829017,-0.16017285027453124,0,0,0,1
1.538849325337341,0.33245755576829017,-0.16017285027453124,0,0,0,1
1.666702725337341,-0.31559398423170987,-0.19538477027453122,0,0,0,1
-1.113528674662659,0.20224185576829012,0.021991817725468772,0,0,0,1
0.3576169253373409,-1.4295944842317099,-0.27935174027453125,0,0,0,1
0.3576169253373409,-1.4295944842317099,-0.27935174027453125,0,0,0,1
1.827673425337341,0.16825892576829013,0.26894458972546875,0,0,0,1
1.827673425337341,0.16825892576829013,0.26894458972546875,0,0,0,1
-0.43142841466265913,-0.05057002423170987,-0.2894770202745312,0,0,0,1
-0.43142841466265913,-0.05057002423170987,-0.2894770202745312,0,0,0,1
-0.4138121446626591,-0.7413681842317098,-0.17549589027453122,0,0,0,1
-0.3997502146626591,0.6762192157682901,-0.11421755027453123,0,0,0,1
1.356656525337341,1.0476788157682901,0.013866750725468772,0,0,0,1
1.356656525337341,1.0476788157682901,0.013866750725468772,0,0,0,1
0.17658855533734089,-0.06903767423170987,-0.23248711027453123,0,0,0,1
1.305439525337341,-0.1927882542317099,-0.17239323027453124,0,0,0,1
1.230210825337341,0.1966552957682901,-0.3385780202745312,0,0,0,1
0.40609504533734087,0.44011511576829015,-0.4406680202745312,0,0,0,1
-0.4239792746626591,0.28170673576829014,-0.22461453027453124,0,0,0,1
-0.9515862346626591,-0.02651226223170987,-0.10540989027453122,0,0,0,1
-0.9515862346626591,-0.02651226223170987,-0.10540989027453122,0,0,0,1
-0.1811060746626591,0.040928709768290134,-0.11650398527453124,0,0,0,1
0.8029933253373409,-0.1400030042317099,0.02699371972546877,0,0,0,1
1.060880225337341,-0.35599146423170985,0.10401340972546877,0,0,0,1
0.31709815533734087,-0.1636270542317099,0.08740946472546877,0,0,0,1
-0.6739001146626591,-0.15427149423170988,-0.10303202427453123,0,0,0,1
-0.6739001146626591,-0.15427149423170988,-0.10303202427453123,0,0,0,1
0.05864860533734089,-0.45997088423170984,-0.04404905627453122,0,0,0,1
1.372667825337341,-0.11253808423170987,-0.11072412027453123,0,0,0,1
-0.020147784662659103,0.1708132857682901,0.010735719725468773,0,0,0,1
-1.821061574662659,0.5990746157682901,0.6587732697254688,0,0,0,1
-1.821061574662659,0.5990746157682901,0.6587732697254688,0,0,0,1
-0.9580845746626591,0.7089720557682901,0.30526217972546876,0,0,0,1
2.5153298253373406,0.2792613957682901,-0.39513828027453124,0,0,0,1
2.5153298253373406,0.2792613957682901,-0.39513828027453124,0,0,0,1
-1.568108074662659,-0.025769617231709868,0.3001545397254688,0,0,0,1
-1.569363074662659,-0.02807379923170987,0.29342301972546875,0,0,0,1
1.615021225337341,0.28843251576829015,0.3138397597254688,0,0,0,1
1.979994325337341,0.00020975216829012848,-0.2643306602745312,0,0,0,1
0.7850213253373409,-0.19790692423170989,-0.6871440802745312,0,0,0,1
-0.7660651046626591,-0.2382339642317099,-0.7221350802745312,0,0,0,1
-0.9527411346626591,0.6545303157682901,-0.3168774002745312,0,0,0,1
-0.9527411346626591,0.6545303157682901,-0.3168774002745312,0,0,0,1
2.6720367253373407,-0.6858292842317099,0.06476756972546877,0,0,0,1
0.6210475253373409,-0.6210007842317099,0.18217977972546878,0,0,0,1
-2.4417819746626592,0.5586508657682902,0.8709884597254688,0,0,0,1
-2.4417819746626592,0.5586508657682902,0.8709884597254688,0,0,0,1
-1.858566274662659,1.0286889157682901,0.7442848197254688,0,0,0,1
-1.858566274662659,1.0286889157682901,0.7442848197254688,0,0,0,1
-1.858566274662659,1.0286889157682901,0.7442848197254688,0,0,0,1
2.6637339253373407,-0.7444761242317098,-0.8312448802745311,0,0,0,1
0.9208770253373408,-0.9770435842317099,-0.6504055802745312,0,0,0,1
-1.702317274662659,0.7760684657682901,0.3453284197254688,0,0,0,1
-1.003235324662659,1.06430881576829,0.5032263697254689,0,0,0,1
1.120010825337341,0.2550741657682901,0.46068451972546876,0,0,0,1
-0.06068180466265911,-0.09106859423170988,-0.11390546027453123,0,0,0,1
-0.06068180466265911,-0.09106859423170988,-0.11390546027453123,0,0,0,1
-0.06068180466265911,-0.09106859423170988,-0.11390546027453123,0,0,0,1
-0.5231222746626591,0.8078109157682901,-0.21472350027453124,0,0,0,1
-0.5231222746626591,0.8078109157682901,-0.21472350027453124,0,0,0,1
1.686057625337341,-0.5927736842317098,-0.14865128027453123,0,0,0,1
0.5509257253373409,-0.11593122423170987,0.17673226972546877,0,0,0,1
-0.3319811746626591,0.47196598576829013,0.6356403497254688,0,0,0,1
-0.3319811746626591,0.47196598576829013,0.6356403497254688,0,0,0,1
-0.6980643146626591,0.8357268157682901,0.4296911597254688,0,0,0,1
-0.0032934981626591055,-0.7058599442317098,-0.3208427802745312,0,0,0,1
0.4860339253373409,-1.47297308423171,-0.7494391802745312,0,0,0,1
0.7679820253373408,0.006458300768290129,-0.4812893002745312,0,0,0,1
0.39674235533734087,0.9658952157682902,0.046494213725468775,0,0,0,1
0.2923035753373409,0.6194943157682902,0.19169195972546876,0,0,0,1
-0.3565420946626591,-0.021320235231709873,-0.21772292027453122,0,0,0,1
-0.2550816346626591,0.45590391576829015,-0.037153156274531224,0,0,0,1
-0.2550816346626591,0.45590391576829015,-0.037153156274531224,0,0,0,1
1.115797525337341,-0.06349318923170987,-0.29110138027453125,0,0,0,1
-0.5093703146626591,-0.07787331423170987,0.19720181972546877,0,0,0,1
-0.5093703146626591,-0.07787331423170987,0.19720181972546877,0,0,0,1
-0.3609986146626591,0.9578627157682902,0.4931629597254688,0,0,0,1
-0.055365069662659104,0.09698523576829013,-0.018558176274531227,0,0,0,1
-0.055365069662659104,0.09698523576829013,-0.018558176274531227,0,0,0,1
1.166583525337341,0.47244294576829016,-0.23358181027453123,0,0,0,1
1.166583525337341,0.47244294576829016,-0.23358181027453123,0,0,0,1
1.166583525337341,0.47244294576829016,-0.23358181027453123,0,0,0,1
-0.3464197946626591,0.9421220557682901,-0.06991270327453122,0,0,0,1
-1.409613074662659,-1.92675268423171,-0.13955012027453123,0,0,0,1
-0.4363550946626591,-2.1197208842317097,0.020130483725468773,0,0,0,1
-0.4363550946626591,-2.1197208842317097,0.020130483725468773,0,0,0,1
1.546971825337341,0.8355269157682902,0.7168949497254689,0,0,0,1
1.546971825337341,0.8355269157682902,0.7168949497254689,0,0,0,1
0.3810982853373409,-0.029594134231709868,-0.47358433027453123,0,0,0,1
-0.8538222146626591,-1.03601068423171,-0.7540406302745312,0,0,0,1
-0.8538222146626591,-1.03601068423171,-0.7540406302745312,0,0,0,1
-1.580080474662659,-0.5398597842317099,-0.8426127802745311,0,0,0,1
0.1959176253373409,1.24147251576829,0.19136294972546877,0,0,0,1
0.1959176253373409,1.24147251576829,0.19136294972546877,0,0,0,1
1.317849625337341,0.5360141157682902,0.6192600197254688,0,0,0,1
1.148542925337341,-1.30447758423171,0.4027864597254688,0,0,0,1
0.8729644253373409,0.19229387576829013,0.5395253597254688,0,0,0,1
0.5466752253373409,1.58426001576829,0.3415450697254688,0,0,0,1
0.5466752253373409,1.58426001576829,0.3415450697254688,0,0,0,1
0.3148856253373409,-0.5829531342317098,-1.105514780274531,0,0,0,1
-1.820620474662659,-1.79554558423171,-0.6191989502745312,0,0,0,1
0.09830333533734088,2.65017751576829,1.1205606197254687,0,0,0,1
0.09830333533734088,2.65017751576829,1.1205606197254687,0,0,0,1
1.239898225337341,-0.6284493842317098,-0.49669138027453125,0,0,0,1
1.239804725337341,-0.6099919542317098,-0.49987998027453123,0,0,0,1
-0.7217869746626591,-1.02795388423171,-1.211294780274531,0,0,0,1
-1.567017974662659,0.47814525576829014,-0.7277473802745311,0,0,0,1
0.4382844253373409,-0.8710566842317099,0.2530978597254688,0,0,0,1
0.4382844253373409,-0.8710566842317099,0.2530978597254688,0,0,0,1
0.4382844253373409,-0.8710566842317099,0.2530978597254688,0,0,0,1
1.063303525337341,-1.24122598423171,0.29294701972546877,0,0,0,1
1.989390825337341,-0.6578423842317098,0.15876158972546878,0,0,0,1
-0.6351132246626591,1.27769761576829,-0.3011496402745312,0,0,0,1
0.9366612553373409,-0.37360395423170983,-0.5637040402745311,0,0,0,1
0.9366612553373409,-0.37360395423170983,-0.5637040402745311,0,0,0,1
0.4255089953373409,-0.8545733842317098,-0.13530901027453124,0,0,0,1
0.4255089953373409,-0.8545733842317098,-0.13530901027453124,0,0,0,1
-0.8568205746626592,-0.031083789231709867,0.2596957397254688,0,0,0,1
-0.8568205746626592,-0.031083789231709867,0.2596957397254688,0,0,0,1
-0.8568205746626592,-0.031083789231709867,0.2596957397254688,0,0,0,1
-0.8568205746626592,-0.031083789231709867,0.2596957397254688,0,0,0,1
0.6725688253373409,0.021285865768290127,-0.3709065002745312,0,0,0,1
1.075387525337341,0.8586845157682902,-0.7447322802745312,0,0,0,1
0.004896656837340895,0.7749941557682901,-0.4666540802745312,0,0,0,1
0.004896656837340895,0.7749941557682901,-0.4666540802745312,0,0,0,1
-0.9232620746626591,0.47384228576829013,-0.19748512027453122,0,0,0,1
-0.4426464746626591,-0.04046652823170987,0.07352479972546877,0,0,0,1
0.16293288533734088,-0.2582167242317099,0.30367716972546877,0,0,0,1
0.16293288533734088,-0.2582167242317099,0.30367716972546877,0,0,0,1
0.10205413533734088,-0.44726983423170985,0.012561409725468774,0,0,0,1
0.10205413533734088,-0.44726983423170985,0.012561409725468774,0,0,0,1
0.07969905533734088,-0.3503429142317099,-0.43589798027453125,0,0,0,1
1.297936025337341,-0.03962717423170987,0.19497629972546876,0,0,0,1
0.6284032253373409,0.40332557576829015,0.25204641972546876,0,0,0,1
0.6673197953373409,-0.1302362542317099,0.3506158197254688,0,0,0,1
-0.05835769966265911,0.3202109557682901,0.39257057972546877,0,0,0,1
-1.498409774662659,0.7668599157682902,0.5837657197254689,0,0,0,1
-1.498409774662659,0.7668599157682902,0.5837657197254689,0,0,0,1
-1.498409774662659,0.7668599157682902,0.5837657197254689,0,0,0,1
0.07356883533734089,0.4000803157682901,0.34347673972546877,0,0,0,1
1.801528425337341,-0.3639602142317099,-0.6077500802745311,0,0,0,1
0.9311719253373408,0.2030207257682901,-0.46834734027453123,0,0,0,1
0.9311719253373408,0.2030207257682901,-0.46834734027453123,0,0,0,1
-1.631291874662659,0.6207455557682902,0.08262821972546877,0,0,0,1
-1.631291874662659,0.6207455557682902,0.08262821972546877,0,0,0,1
-0.10063312466265911,-0.43561236423170985,-0.011826069674531224,0,0,0,1
1.368716725337341,-0.5955682842317098,-0.12230459027453124,0,0,0,1
1.195136525337341,0.021067831768290128,0.008166519725468772,0,0,0,1
0.7079959253373409,-0.2707892142317099,-0.2655289502745312,0,0,0,1
-0.10897110466265911,0.35418481576829014,0.24901994972546876,0,0,0,1
0.2447076053373409,0.35763611576829013,0.3239334497254688,0,0,0,1
0.2447076053373409,0.35763611576829013,0.3239334497254688,0,0,0,1
-0.014415247662659107,0.27581008576829014,0.10055037972546876,0,0,0,1
0.9644818253373408,-0.34107182423170984,-0.4953949802745312,0,0,0,1
-0.5131544746626591,-0.4135913842317099,-0.05782488027453122,0,0,0,1
-0.5131544746626591,-0.4135913842317099,-0.05782488027453122,0,0,0,1
-0.8232168746626591,-0.6513433242317098,0.32166001972546876,0,0,0,1
1.162038325337341,0.02841760576829013,0.16466137972546877,0,0,0,1
1.390508225337341,0.12421694576829014,-0.3473378802745312,0,0,0,1
0.6536765253373409,0.2981352957682901,-0.5441988802745312,0,0,0,1
-0.3382010346626591,0.24117742576829013,-0.7896964802745312,0,0,0,1
-0.3382010346626591,0.24117742576829013,-0.7896964802745312,0,0,0,1
-0.6191506246626591,0.12240113576829013,-0.4989474102745312,0,0,0,1
-0.3825840746626591,0.14855060576829013,-0.3267879802745312,0,0,0,1
0.5186295653373408,0.3419399457682901,0.10422178972546876,0,0,0,1
0.9814896753373409,0.1923011857682901,0.36612411972546877,0,0,0,1
0.5542292753373409,-0.18500448423170987,0.36552951972546877,0,0,0,1
0.07004882533734089,-0.7298659842317099,0.2894621797254688,0,0,0,1
-0.2709765246626591,-0.09590992023170987,0.22191187972546877,0,0,0,1
0.019155041337340896,0.8482569157682901,-0.16623786027453122,0,0,0,1
0.019155041337340896,0.8482569157682901,-0.16623786027453122,0,0,0,1
1.141371225337341,0.26064521576829014,-0.12142137027453123,0,0,0,1
1.110355825337341,0.010906788768290128,-0.30747321027453123,0,0,0,1
1.110355825337341,0.010906788768290128,-0.30747321027453123,0,0,0,1
-0.6426367746626591,-0.1562831242317099,0.36615904972546875,0,0,0,1
-0.6438917746626591,-0.1557105742317099,0.35887141972546877,0,0,0,1
-0.5377754746626591,-0.014273819231709872,0.029412476725468772,0,0,0,1
-0.5377754746626591,-0.014273819231709872,0.029412476725468772,0,0,0,1
-0.5377754746626591,-0.014273819231709872,0.029412476725468772,0,0,0,1
1.309345725337341,-0.2845947542317099,-0.5109911302745311,0,0,0,1
1.309345725337341,-0.2845947542317099,-0.5109911302745311,0,0,0,1
-1.313369274662659,0.5392076157682901,0.06836911972546877,0,0,0,1
-1.313369274662659,0.5392076157682901,0.06836911972546877,0,0,0,1
-1.313369274662659,0.5392076157682901,0.06836911972546877,0,0,0,1
1.617744025337341,-0.13698455423170988,-0.39882508027453123,0,0,0,1
1.617744025337341,-0.13698455423170988,-0.39882508027453123,0,0,0,1
1.617744025337341,-0.13698455423170988,-0.39882508027453123,0,0,0,1
-0.2304310646626591,0.031222734768290128,-0.15444425027453124,0,0,0,1
-0.2304310646626591,0.031222734768290128,-0.15444425027453124,0,0,0,1
0.38459732533734087,0.47004728576829014,-0.06064239327453122,0,0,0,1
0.38459732533734087,0.47004728576829014,-0.06064239327453122,0,0,0,1
0.38459732533734087,0.47004728576829014,-0.06064239327453122,0,0,0,1
0.38459732533734087,0.47004728576829014,-0.06064239327453122,0,0,0,1
1.828359125337341,-0.5219716842317098,-0.43674496027453125,0,0,0,1
0.7419047253373409,-0.6711598442317098,-0.5085568802745312,0,0,0,1
-1.051408274662659,-0.43460820423170987,-0.06690934427453123,0,0,0,1
-2.0392317746626594,0.20902815576829012,0.09927948972546877,0,0,0,1
-1.083919074662659,0.42424299576829017,0.28939028972546876,0,0,0,1
-1.083919074662659,0.42424299576829017,0.28939028972546876,0,0,0,1
1.227723625337341,0.44543481576829014,0.08689960972546877,0,0,0,1
2.2763629253373407,0.48150508576829015,-0.06538442027453123,0,0,0,1
-0.08915184466265912,0.022235709768290125,-0.47123638027453124,0,0,0,1
-0.08915184466265912,0.022235709768290125,-0.47123638027453124,0,0,0,1
-1.626996474662659,0.1934559057682901,-0.10106483027453123,0,0,0,1
-1.626996474662659,0.1934559057682901,-0.10106483027453123,0,0,0,1
0.2262854753373409,0.41268144576829013,0.13555165972546876,0,0,0,1
2.313684025337341,-0.32759655423170986,0.06390925972546876,0,0,0,1
-0.009587748662659105,-0.6363012842317098,-0.48497561027453123,0,0,0,1
-0.7639975346626591,-0.7008988842317099,-0.09107366027453123,0,0,0,1
-0.5372328746626591,0.32096819576829017,-0.023319037274531225,0,0,0,1
-0.5372328746626591,0.32096819576829017,-0.023319037274531225,0,0,0,1
0.44174338533734087,0.5665585557682902,-0.15092161027453124,0,0,0,1
1.161602525337341,-0.22487618423170988,0.09883495972546877,0,0,0,1
0.0430102513373409,-0.3083698542317099,0.18707379972546878,0,0,0,1
0.0430102513373409,-0.3083698542317099,0.18707379972546878,0,0,0,1
-0.0323853336626591,0.19322355576829012,-0.011495025474531226,0,0,0,1
0.3691840253373409,0.4969616157682901,-0.10414031027453123,0,0,0,1
0.42562438533734087,0.7436380557682901,-0.10052744027453123,0,0,0,1
0.0518212483373409,0.12931835576829012,-0.22953287027453123,0,0,0,1
0.07588912533734089,-0.1552146342317099,-0.5412080802745312,0,0,0,1
0.07588912533734089,-0.1552146342317099,-0.5412080802745312,0,0,0,1
-0.03408859466265911,0.07112541576829014,-0.16921392027453122,0,0,0,1
-0.03408859466265911,0.07112541576829014,-0.16921392027453122,0,0,0,1
0.09365798533734089,0.09134138576829014,0.048553316725468774,0,0,0,1
-0.6488137046626591,-0.47192524423170984,-0.23415724027453122,0,0,0,1
-0.6488137046626591,-0.47192524423170984,-0.23415724027453122,0,0,0,1
-0.5084957746626592,-0.7014783842317098,-0.03260389127453123,0,0,0,1
-0.010999186662659106,-0.11544812823170987,-0.18006089027453123,0,0,0,1
-0.010999186662659106,-0.11544812823170987,-0.18006089027453123,0,0,0,1
1.738122525337341,-0.008901771231709871,-0.03794959327453123,0,0,0,1
-0.7908282146626591,0.027198302768290127,0.03521510972546878,0,0,0,1
-1.879928074662659,1.74918081576829,0.21319373972546876,0,0,0,1
-1.879928074662659,1.74918081576829,0.21319373972546876,0,0,0,1
-1.879928074662659,1.74918081576829,0.21319373972546876,0,0,0,1
-0.3150534446626591,1.20656911576829,-0.011048109874531226,0,0,0,1
-0.8952183746626591,1.20317951576829,0.21869345972546878,0,0,0,1
-0.4295582746626591,-1.4476153842317099,-0.26116601027453124,0,0,0,1
-0.4295582746626591,-1.4476153842317099,-0.26116601027453124,0,0,0,1
-0.4295582746626591,-1.4476153842317099,-0.26116601027453124,0,0,0,1
-0.4295582746626591,-1.4476153842317099,-0.26116601027453124,0,0,0,1
0.7959027253373409,-0.4540046542317099,-0.27991334027453124,0,0,0,1
0.9197468953373409,2.16686701576829,-0.06915453227453122,0,0,0,1
-0.15771911466265912,1.01277271576829,-0.33566526027453125,0,0,0,1
-0.6917805746626591,-1.44436658423171,-0.6854310302745312,0,0,0,1
-0.6917805746626591,-1.44436658423171,-0.6854310302745312,0,0,0,1
1.265069525337341,-0.7191165842317099,0.7209915797254688,0,0,0,1
0.3444943553373409,-1.32357328423171,0.5937725197254689,0,0,0,1
-0.3058590746626591,1.02703201576829,0.04315814272546878,0,0,0,1
-0.3058590746626591,1.02703201576829,0.04315814272546878,0,0,0,1
1.264939825337341,1.26329401576829,-0.20676831027453124,0,0,0,1
-0.7789578246626591,-0.9401939842317099,-0.5622416802745311,0,0,0,1
-0.051263314662659105,-1.04431828423171,-0.16030148027453123,0,0,0,1
1.641117625337341,0.1712373557682901,0.44639929972546877,0,0,0,1
-1.815392474662659,-0.6355670842317098,-0.031230838274531224,0,0,0,1
-1.815392474662659,-0.6355670842317098,-0.031230838274531224,0,0,0,1
0.025109784337340894,-0.23357590423170987,-0.21096698027453123,0,0,0,1
0.16788436533734089,-0.025325384231709873,0.03147086372546878,0,0,0,1
-0.5328945746626591,1.21743191576829,0.18099721972546878,0,0,0,1
-0.09823463466265911,1.53799951576829,0.19979008972546877,0,0,0,1
-0.45533227466265913,-0.38601423423170983,-0.6287265102745312,0,0,0,1
-0.6545223746626591,-0.7588471842317098,-0.055140646274531226,0,0,0,1
-0.07114551866265911,0.06321946176829013,0.5477615197254688,0,0,0,1
2.722807425337341,0.5620186157682902,0.5315387197254688,0,0,0,1
0.7878766253373409,0.015732321768290126,-0.20957378027453122,0,0,0,1
-1.493532674662659,-0.7138509842317099,-0.3065312202745312,0,0,0,1
-1.681446574662659,-0.38918034423170983,-0.29922798027453124,0,0,0,1
-0.4141211346626591,0.33010368576829013,0.06172081972546877,0,0,0,1
-0.4141211346626591,0.33010368576829013,0.06172081972546877,0,0,0,1
1.745070025337341,0.5772676157682901,-0.17212132027453123,0,0,0,1
3.0876517253373406,0.41867687576829016,-0.22609607027453124,0,0,0,1
-2.674383174662659,1.66245681576829,0.15404137972546877,0,0,0,1
-2.674383174662659,1.66245681576829,0.15404137972546877,0,0,0,1
1.526068225337341,0.42699171576829015,0.06073995972546877,0,0,0,1
2.0769029253373406,-0.7498855842317098,-0.48056510027453125,0,0,0,1
-0.6307186746626591,-0.26659438423170984,-0.4640380502745312,0,0,0,1
-0.7409634446626591,-1.07113658423171,0.4482951997254688,0,0,0,1
-0.4477524546626591,0.23313237576829013,-0.47493318027453124,0,0,0,1
-0.4477524546626591,0.23313237576829013,-0.47493318027453124,0,0,0,1
-0.4477524546626591,0.23313237576829013,-0.47493318027453124,0,0,0,1
-0.8341316746626591,0.14423449576829012,-0.3327768202745312,0,0,0,1
0.8838181653373409,-0.7013886342317098,0.6684756197254689,0,0,0,1
0.8838181653373409,-0.7013886342317098,0.6684756197254689,0,0,0,1
1.218617925337341,-0.46755568423170984,0.4199354197254688,0,0,0,1
1.218617925337341,-0.46755568423170984,0.4199354197254688,0,0,0,1
-0.5131001346626591,-0.08364487823170987,-0.2726544502745312,0,0,0,1
-0.7213597146626591,-0.09716196023170987,-0.39001086027453125,0,0,0,1
-1.126396674662659,0.42211474576829017,-0.6225710202745312,0,0,0,1
0.4371047253373409,0.28709251576829015,0.040118543725468775,0,0,0,1
0.4371047253373409,0.28709251576829015,0.040118543725468775,0,0,0,1
1.793147625337341,-0.15342567423170989,0.05019280172546878,0,0,0,1
0.6274838653373409,-0.14578014423170987,-0.08978084027453123,0,0,0,1
0.6274838653373409,-0.14578014423170987,-0.08978084027453123,0,0,0,1
-1.715273874662659,0.05941451576829013,-0.6588660802745312,0,0,0,1
-2.695169874662659,-0.21496238423170988,-0.6628539802745311,0,0,0,1
-0.9378075446626591,-0.5341835442317099,-0.4794674202745312,0,0,0,1
0.3559050753373409,0.09076974176829013,-0.47481516027453124,0,0,0,1
3.054700425337341,0.2915515457682901,-0.058737430274531224,0,0,0,1
1.439192325337341,0.5526878157682902,-0.2781439102745312,0,0,0,1
-0.5299515746626591,0.35073611576829017,-0.27372792027453124,0,0,0,1
-0.5299515746626591,0.35073611576829017,-0.27372792027453124,0,0,0,1
-2.179583974662659,0.24702266576829013,-0.050303133274531224,0,0,0,1
-2.075917674662659,0.5267564157682901,0.07450720472546878,0,0,0,1
-2.075917674662659,0.5267564157682901,0.07450720472546878,0,0,0,1
0.9902520253373409,-0.9268659842317098,-0.4268212602745312,0,0,0,1
0.5312457253373409,-0.5874460842317099,-0.052657278274531226,0,0,0,1
-0.8816952746626591,1.24135051576829,0.40908666972546875,0,0,0,1
0.2381835153373409,0.01188236076829013,0.03378852972546878,0,0,0,1
0.2381835153373409,0.01188236076829013,0.03378852972546878,0,0,0,1
0.2381835153373409,0.01188236076829013,0.03378852972546878,0,0,0,1
-1.205925474662659,-0.5683710342317099,-0.3166680602745312,0,0,0,1
-0.2740902746626591,0.04240639076829013,-0.3050834302745312,0,0,0,1
-0.2740902746626591,0.04240639076829013,-0.3050834302745312,0,0,0,1
-0.2740902746626591,0.04240639076829013,-0.3050834302745312,0,0,0,1
-0.15222404466265912,0.45676984576829016,0.5964282197254688,0,0,0,1
0.3542151653373409,1.51657971576829,0.8178530197254689,0,0,0,1
0.2185712053373409,0.8605962157682902,0.06821009372546877,0,0,0,1
0.2185712053373409,0.8605962157682902,0.06821009372546877,0,0,0,1
0.09395839533734089,-0.8450056842317099,-0.24610594027453123,0,0,0,1
1.881015325337341,0.6171098157682902,-0.6445654802745312,0,0,0,1
1.881015325337341,0.6171098157682902,-0.6445654802745312,0,0,0,1
0.07938625033734088,-1.14919228423171,0.09102889972546876,0,0,0,1
0.07938625033734088,-1.14919228423171,0.09102889972546876,0,0,0,1
0.07938625033734088,-1.14919228423171,0.09102889972546876,0,0,0,1
-0.09385727466265911,-0.17518011423170987,0.7014698197254688,0,0,0,1
1.084291025337341,1.06701341576829,1.1679606197254688,0,0,0,1
1.361222725337341,0.20434379576829012,1.0675001197254688,0,0,0,1
1.361222725337341,0.20434379576829012,1.0675001197254688,0,0,0,1
-0.3957857946626591,-1.0627587842317099,-0.20205477027453123,0,0,0,1
-0.3957857946626591,-1.0627587842317099,-0.20205477027453123,0,0,0,1
-0.43376873466265914,-0.9932276442317098,-0.7644224502745312,0,0,0,1
-0.18256233466265911,1.27264381576829,-0.9596809502745312,0,0,0,1
-0.18256233466265911,1.27264381576829,-0.9596809502745312,0,0,0,1
1.021812025337341,-0.11146987423170987,-0.08279589027453123,0,0,0,1
0.7648530253373409,-0.03505707923170987,-0.07797912027453123,0,0,0,1
1.165484925337341,0.3072371957682901,0.17367335972546877,0,0,0,1
1.555004625337341,0.12051488576829013,0.4398795197254688,0,0,0,1
1.032208925337341,0.3996062457682901,0.2611471197254688,0,0,0,1
-1.717937974662659,-0.17548964423170987,-0.07001880027453122,0,0,0,1
-1.717937974662659,-0.17548964423170987,-0.07001880027453122,0,0,0,1
-1.233936774662659,-0.35897688423170987,-0.11586979027453123,0,0,0,1
0.2098097953373409,-0.021466654231709868,-0.4128340802745312,0,0,0,1
1.598108725337341,0.09018872576829014,-0.9589101402745311,0,0,0,1
0.20758296533734089,-0.6704025842317098,-0.36154786027453123,0,0,0,1
0.20758296533734089,-0.6704025842317098,-0.36154786027453123,0,0,0,1
0.2067094053373409,-0.6697934842317098,-0.36667326027453123,0,0,0,1
-0.8193764746626591,-0.6278841842317099,-0.21463099027453122,0,0,0,1
-0.5716175746626592,-0.5124238842317098,0.5411602197254688,0,0,0,1
-0.38376854466265914,1.46604721576829,0.2964925497254688,0,0,0,1
-0.38376854466265914,1.46604721576829,0.2964925497254688,0,0,0,1
-0.011781199662659107,1.13630191576829,0.4661744497254688,0,0,0,1
-0.011781199662659107,1.13630191576829,0.4661744497254688,0,0,0,1
0.5582843253373408,-0.13179661423170988,-0.12548414027453123,0,0,0,1
-0.09369991466265912,-0.5082857442317098,-0.6343056302745311,0,0,0,1
0.15530635533734088,0.42024281576829015,-0.31378928027453123,0,0,0,1
-0.2416405546626591,0.6027208757682901,-0.49621418027453124,0,0,0,1
-0.2416405546626591,0.6027208757682901,-0.49621418027453124,0,0,0,1
0.4653039253373409,-0.20949302423170987,0.26673778972546874,0,0,0,1
-0.7481684746626591,0.46815871576829016,0.2978790697254688,0,0,0,1
-1.289850674662659,0.32417167576829015,0.14060672972546878,0,0,0,1
-0.1569504546626591,-0.5994538442317099,0.10265477972546877,0,0,0,1
0.9897246253373408,0.39559467576829016,-0.7169387802745312,0,0,0,1
0.9897246253373408,0.39559467576829016,-0.7169387802745312,0,0,0,1
1.640483425337341,0.5487096157682901,-0.4936309202745312,0,0,0,1
-1.066195974662659,0.2678754857682901,-0.002713473274531225,0,0,0,1
-1.066195974662659,0.2678754857682901,-0.002713473274531225,0,0,0,1
-1.819051274662659,-0.5638711242317098,0.5503637197254688,0,0,0,1
-1.819051274662659,-0.5638711242317098,0.5503637197254688,0,0,0,1
-0.0429358316626591,-0.7239026842317099,0.6352129897254688,0,0,0,1
1.728349225337341,-0.2394579742317099,-0.15636733027453123,0,0,0,1
1.728349225337341,-0.2394579742317099,-0.15636733027453123,0,0,0,1
1.728349225337341,-0.2394579742317099,-0.15636733027453123,0,0,0,1
0.11082030933734088,-0.09249454423170987,-0.40309945027453126,0,0,0,1
0.11082030933734088,-0.09249454423170987,-0.40309945027453126,0,0,0,1
-0.4903893346626591,0.8599412157682902,-0.008204133874531226,0,0,0,1
-0.4903893346626591,0.8599412157682902,0.10037001972546877,0,0,0,1
0.0391822023373409,0.7614250157682901,0.10037001972546877,0,0,0,1
0.0391822023373409,0.7614250157682901,0.10037001972546877,0,0,0,1
1.092482125337341,-0.7920386842317099,0.3904301797254688,0,0,0,1
0.5317092253373409,0.15057246576829011,0.4100849197254688,0,0,0,1
-0.020794374662659106,0.1935792457682901,0.08438559972546877,0,0,0,1
-0.020794374662659106,0.1935792457682901,0.08438559972546877,0,0,0,1
-1.125315174662659,-0.5698387842317099,-0.7692684202745311,0,0,0,1
-1.125315174662659,-0.5698387842317099,-0.7692684202745311,0,0,0,1
0.1860842853373409,1.0004334157682901,-0.06528857527453123,0,0,0,1
0.9916405853373409,1.42220391576829,0.022105066725468775,0,0,0,1
1.342692825337341,0.6301837757682901,-0.14555648027453122,0,0,0,1
0.9659524253373409,-0.43589908423170987,-0.09548810027453122,0,0,0,1
-0.3772721146626591,-0.9386057842317098,0.0057946127254687755,0,0,0,1
-1.244740974662659,-0.47071353423170986,0.3257596197254688,0,0,0,1
-1.244740974662659,-0.47071353423170986,0.3257596197254688,0,0,0,1
-0.2010397746626591,0.04990522176829013,0.07349833972546876,0,0,0,1
0.2977872053373409,-0.20267955423170989,-0.0006091907745312255,0,0,0,1
0.8422999253373409,-0.29947723423170985,-0.21392456027453122,0,0,0,1
0.8422999253373409,-0.29947723423170985,-0.21392456027453122,0,0,0,1
0.2379927753373409,0.38626921576829015,-0.45191898027453126,0,0,0,1
0.2379927753373409,0.38626921576829015,-0.45191898027453126,0,0,0,1
-0.4772476946626591,0.37180551576829013,0.35940083972546877,0,0,0,1
-0.4772476946626591,0.37180551576829013,0.35940083972546877,0,0,0,1
-0.2142290946626591,0.4401022157682901,0.7753232197254688,0,0,0,1
0.8473029253373409,-0.07170660423170987,0.18815835972546877,0,0,0,1
0.8473029253373409,-0.07170660423170987,0.18815835972546877,0,0,0,1
0.8473029253373409,-0.07170660423170987,0.18815835972546877,0,0,0,1
-0.6165823746626591,0.47190897576829016,-0.4000243302745312,0,0,0,1
1.247394125337341,0.03989820576829013,-0.42126528027453125,0,0,0,1
1.047654625337341,-0.4408804042317099,-0.5868679802745311,0,0,0,1
1.047654625337341,-0.4408804042317099,-0.5868679802745311,0,0,0,1
0.5285430253373409,-0.6826353842317099,-0.22529903027453124,0,0,0,1
-0.06845615466265911,-0.5340210842317099,0.41242858972546875,0,0,0,1
-1.686740374662659,0.42471731576829014,0.45457943972546877,0,0,0,1
-0.6720127746626591,0.08095560576829013,0.16734298972546877,0,0,0,1
0.5641350953373409,-0.8928397842317098,0.05405351372546878,0,0,0,1
0.5633988253373409,-0.8238395842317099,-0.19785372027453124,0,0,0,1
0.5633988253373409,-0.8238395842317099,-0.19785372027453124,0,0,0,1
0.8289399253373408,1.10087001576829,-0.6156518802745312,0,0,0,1
0.8289399253373408,1.10087001576829,-0.6156518802745312,0,0,0,1
0.7251506253373409,1.0709463157682901,-0.42318156027453124,0,0,0,1
-0.4567227246626591,-0.32371212423170986,-0.38187578027453123,0,0,0,1
0.26589632533734087,-0.14681242423170987,0.19370397972546877,0,0,0,1
0.4718156053373409,0.37344219576829013,0.36495264972546876,0,0,0,1
0.4718156053373409,0.37344219576829013,0.36495264972546876,0,0,0,1
0.4718156053373409,0.37344219576829013,0.36495264972546876,0,0,0,1
0.7087626653373409,-0.4174264442317099,0.5719499197254688,0,0,0,1
0.4418931253373409,-0.8286545842317099,0.26796671972546876,0,0,0,1
0.4418931253373409,-0.8286545842317099,0.26796671972546876,0,0,0,1
-0.7039131746626591,-0.8494547842317098,0.04474386372546878,0,0,0,1
-0.4364247146626591,-0.09044988823170987,-0.11138049027453123,0,0,0,1
0.9861464653373408,0.5284989157682901,-0.28773478027453125,0,0,0,1
1.493516425337341,0.7311313157682902,-0.32135680027453123,0,0,0,1
1.493516425337341,0.7311313157682902,-0.32135680027453123,0,0,0,1
0.8890776753373408,0.09026879576829012,-0.04673317227453122,0,0,0,1
0.2340045153373409,0.5069259557682901,0.3001867197254688,0,0,0,1
-0.18838642466265912,-1.28204408423171,-0.4556976802745312,0,0,0,1
-0.18838642466265912,-1.28204408423171,-0.4556976802745312,0,0,0,1
-0.18838642466265912,-1.28204408423171,-0.4556976802745312,0,0,0,1
0.9857297253373409,0.08702761976829013,-0.3473370402745312,0,0,0,1
1.614111425337341,0.3509921657682901,-0.15812376027453123,0,0,0,1
0.5047364253373409,0.32349069576829015,-0.4031302002745312,0,0,0,1
-0.15002392466265912,-1.12173348423171,-0.18057326027453122,0,0,0,1
-0.15002392466265912,-1.12173348423171,-0.18057326027453122,0,0,0,1
-0.5780777746626591,-0.6220163842317099,0.2628044797254688,0,0,0,1
-1.134075674662659,0.7315507157682901,0.2930929397254688,0,0,0,1
-0.0021567183626591056,0.8379266157682902,0.36617335972546877,0,0,0,1
1.395805825337341,-0.17767545423170988,0.15953787972546876,0,0,0,1
1.395805825337341,-0.17767545423170988,0.15953787972546876,0,0,0,1
-0.8959717746626591,-0.8958038842317099,-0.5953438802745312,0,0,0,1
-0.3503203246626591,-0.26141671423170987,-0.35663560027453123,0,0,0,1
-0.3503203246626591,-0.26141671423170987,-0.35663560027453123,0,0,0,1
0.7790818253373409,0.7298631857682901,-0.3251033102745312,0,0,0,1
0.6545796553373409,0.6690851657682901,-0.27775231027453123,0,0,0,1
0.6545796553373409,0.6690851657682901,-0.27775231027453123,0,0,0,1
0.9361825253373409,-0.08426740423170986,0.11545523972546877,0,0,0,1
-0.9969210746626591,0.7605132157682901,0.36696275972546877,0,0,0,1
-0.9969210746626591,0.7605132157682901,0.36696275972546877,0,0,0,1
-0.9969210746626591,0.7605132157682901,0.36696275972546877,0,0,0,1
0.28252364533734087,0.4060804157682901,0.18959923972546877,0,0,0,1
-0.5544571746626591,-1.86095508423171,-0.7931075402745311,0,0,0,1
-0.4181074946626591,-1.46624698423171,-0.4807029102745312,0,0,0,1
0.7503524253373409,-0.12064365423170988,-0.03607467027453123,0,0,0,1
1.073988425337341,1.05554771576829,0.34485001972546875,0,0,0,1
0.6191125253373408,1.00328171576829,0.07754286972546877,0,0,0,1
0.5879664553373409,-0.40886555423170984,0.2727897997254688,0,0,0,1
0.18998481533734088,-1.37695358423171,0.2700451197254688,0,0,0,1
-0.0613951526626591,0.8373985457682901,-0.06364897027453123,0,0,0,1
0.8169608253373409,0.21405884576829012,-0.39477328027453124,0,0,0,1
0.6531863253373409,-0.7434365842317099,-0.8022649802745312,0,0,0,1
0.4802403653373409,-1.30583308423171,-0.8872692802745312,0,0,0,1
0.7740302253373409,-0.9238927142317098,-0.4831695802745312,0,0,0,1
0.5354237753373409,0.30145629576829014,-0.09468451027453123,0,0,0,1
-0.2309260246626591,0.3142146357682901,0.4799675597254688,0,0,0,1
-0.3791842346626591,-0.3342040042317099,0.5996813197254688,0,0,0,1
-0.3311629146626591,-1.10257938423171,0.8123004197254688,0,0,0,1
-0.33256957466265913,-0.6405512842317098,0.7989592197254688,0,0,0,1
0.4057927253373409,0.32484503576829016,0.16650541972546878,0,0,0,1
0.1561093453373409,0.4700598557682901,-0.5713349802745312,0,0,0,1
-0.8211588746626591,-0.1258283342317099,-1.1813063802745312,0,0,0,1
-0.8211588746626591,-0.1258283342317099,-1.1813063802745312,0,0,0,1
0.6810355253373409,-0.10128868423170986,-0.7419278802745312,0,0,0,1
0.6810355253373409,-0.10128868423170986,-0.7419278802745312,0,0,0,1
0.6325535953373409,-0.06237004423170987,0.34306808972546876,0,0,0,1
-0.4196715146626591,-0.7940714142317099,1.110520619725469,0,0,0,1
-0.6238226746626591,0.0008919124682901286,0.8539386197254688,0,0,0,1
-0.6238226746626591,0.0008919124682901286,0.8539386197254688,0,0,0,1
0.2996325653373409,0.6234729157682901,0.23266752972546878,0,0,0,1
0.2996325653373409,0.6234729157682901,0.23266752972546878,0,0,0,1
-0.8877405746626591,-0.5194328842317099,-1.1093279802745313,0,0,0,1
-0.8877405746626591,-0.5194328842317099,-1.1093279802745313,0,0,0,1
-0.9503416746626591,-0.2605901842317099,-0.5650899802745312,0,0,0,1
-0.3014788446626591,0.45372833576829014,0.28091581972546875,0,0,0,1
1.010601525337341,-0.2657664242317099,0.9068240197254688,0,0,0,1
0.1399893953373409,0.48308064576829013,0.6379837197254689,0,0,0,1
0.1419673153373409,0.6520896157682902,0.20551534972546878,0,0,0,1
0.3840470453373409,0.21239295576829012,-0.20324877027453123,0,0,0,1
-0.29142711466265914,0.3427694157682901,-0.9859999802745312,0,0,0,1
0.19522811533734089,-0.5842177842317099,-0.5299546802745312,0,0,0,1
-0.6934170746626591,-0.45467336423170984,-0.08174112627453123,0,0,0,1
0.19093276533734088,-0.6190338842317099,0.5647117797254688,0,0,0,1
0.19093276533734088,-0.6190338842317099,0.5647117797254688,0,0,0,1
0.5646147853373409,0.42950834576829017,0.6309956197254688,0,0,0,1
0.5646147853373409,0.42950834576829017,0.6309956197254688,0,0,0,1
0.5646147853373409,0.42950834576829017,0.6309956197254688,0,0,0,1
-0.7783045746626591,-0.04769794423170987,0.18615981972546877,0,0,0,1
-1.490845174662659,0.3511800957682901,-0.7636188802745312,0,0,0,1
-0.11454914466265911,0.39385016576829013,-0.6869710802745311,0,0,0,1
-0.11454914466265911,0.39385016576829013,-0.6869710802745311,0,0,0,1
0.8142857753373409,0.2501498657682901,-0.8222350202745312,0,0,0,1
0.6094346253373409,-1.05987708423171,-0.19473878027453123,0,0,0,1
0.6094346253373409,-1.05987708423171,-0.19473878027453123,0,0,0,1
0.15465976533734088,0.1785587557682901,0.8245376597254688,0,0,0,1
0.15465976533734088,0.1785587557682901,0.8245376597254688,0,0,0,1
1.375769125337341,0.03769310176829013,0.7474616197254689,0,0,0,1
1.375769125337341,0.03769310176829013,0.7474616197254689,0,0,0,1
0.7092719253373408,0.16553651576829012,0.48693355972546876,0,0,0,1
0.6509757253373409,-0.24636552423170988,-0.2628209802745312,0,0,0,1
0.6509757253373409,-0.24636552423170988,-0.2628209802745312,0,0,0,1
0.2576651753373409,0.5906058157682902,-0.6068321802745311,0,0,0,1
-0.9952139746626592,0.05500839976829013,-1.1732866802745312,0,0,0,1
-0.9952139746626592,0.05500839976829013,-1.1732866802745312,0,0,0,1
-0.2206425546626591,-1.15490218423171,-0.7744525802745311,0,0,0,1
-0.2206425546626591,-1.15490218423171,-0.7744525802745311,0,0,0,1
1.325805225337341,-0.17948253423170987,0.025649396725468777,0,0,0,1
1.033668025337341,-0.2393889542317099,0.9949247197254689,0,0,0,1
-1.120098574662659,-0.1812202742317099,0.9857323197254688,0,0,0,1
-0.9326853746626591,0.01681252176829013,0.4735597197254688,0,0,0,1
-0.9326853746626591,0.01681252176829013,0.4735597197254688,0,0,0,1
0.08882571533734089,0.32870228576829014,-0.35682920027453124,0,0,0,1
0.08882571533734089,0.32870228576829014,-0.35682920027453124,0,0,0,1
0.7445588253373409,-0.26448310423170984,-1.4064559802745311,0,0,0,1
-1.146125274662659,-0.9385564142317099,-0.6256219502745312,0,0,0,1
-1.146125274662659,-0.9385564142317099,-0.6256219502745312,0,0,0,1
0.9053502253373409,0.8869844157682901,0.5131878497254688,0,0,0,1
0.9053502253373409,0.8869844157682901,0.5131878497254688,0,0,0,1
1.824531125337341,0.7597948457682902,0.9269718797254688,0,0,0,1
0.6160149753373408,0.4037747857682901,0.7932543197254688,0,0,0,1
-0.2395853846626591,-0.6976848842317098,0.24594471972546877,0,0,0,1
-0.2395853846626591,-0.6976848842317098,0.24594471972546877,0,0,0,1
-0.2492956946626591,0.2141175757682901,-0.30785993027453123,0,0,0,1
-0.0489849886626591,0.7933273457682901,-0.7771197802745312,0,0,0,1
0.010207669337340894,-0.7785461842317098,-0.6865824802745312,0,0,0,1
0.010207669337340894,-0.7785461842317098,-0.6865824802745312,0,0,0,1
0.010207669337340894,-0.7785461842317098,-0.6865824802745312,0,0,0,1
-1.119354674662659,-0.5088976842317099,-0.5778296302745312,0,0,0,1
-1.119354674662659,-0.5088976842317099,-0.5778296302745312,0,0,0,1
0.4503045253373409,-0.9714535242317098,0.5768482197254688,0,0,0,1
-0.5096335246626591,-1.17347428423171,0.7092351197254688,0,0,0,1
-0.5096335246626591,-1.17347428423171,0.7092351197254688,0,0,0,1
-0.0579552486626591,-0.8142247842317099,1.2948940197254688,0,0,0,1
-0.0579552486626591,-0.8142247842317099,1.2948940197254688,0,0,0,1
0.5791373253373409,1.60429051576829,0.14193281972546878,0,0,0,1
0.7758660253373408,1.29117231576829,-0.3517364602745312,0,0,0,1
-1.215016874662659,0.1965667457682901,-1.1965363802745312,0,0,0,1
-1.215016874662659,0.1965667457682901,-1.1965363802745312,0,0,0,1
-0.20484970466265912,0.38936428576829013,-0.6158828802745312,0,0,0,1
1.097117925337341,-0.27298818423170984,-0.18210378027453122,0,0,0,1
-0.8553499746626592,-1.37623328423171,0.7840039197254688,0,0,0,1
-1.195837474662659,-0.17526231423170988,1.0835146197254688,0,0,0,1
-1.195837474662659,-0.17526231423170988,1.0835146197254688,0,0,0,1
-0.5753559746626591,0.9682829557682902,0.9564182197254688,0,0,0,1
0.9722438253373409,0.6679313157682901,0.2577401197254688,0,0,0,1
1.894036825337341,0.11664651576829013,-0.17322043027453124,0,0,0,1
0.9930243653373408,0.31280006576829017,-0.9532304102745311,0,0,0,1
0.9930243653373408,0.31280006576829017,-0.9532304102745311,0,0,0,1
-1.322761974662659,-0.24380187423170988,-1.4935333802745312,0,0,0,1
-1.104976174662659,-0.5935125142317098,-0.8718980802745312,0,0,0,1
2.271661325337341,0.4250656857682901,1.0670480197254688,0,0,0,1
2.271661325337341,0.4250656857682901,1.0670480197254688,0,0,0,1
2.5782208253373406,0.1359234357682901,1.065036019725469,0,0,0,1
2.5782208253373406,0.1359234357682901,1.065036019725469,0,0,0,1
1.201565325337341,-0.14217160423170988,0.7479784197254689,0,0,0,1
-1.297474374662659,-0.38223735423170985,0.25116487972546875,0,0,0,1
-1.297474374662659,-0.38223735423170985,0.25116487972546875,0,0,0,1
-2.218628874662659,-0.11000094923170987,-0.16173449027453124,0,0,0,1
-1.810955474662659,0.38482841576829013,-0.3254197002745312,0,0,0,1
1.706551125337341,-0.1549644242317099,-0.4011429802745312,0,0,0,1
2.257662325337341,-0.1851100142317099,-0.49297372027453124,0,0,0,1
1.875795825337341,0.26445751576829013,-0.5621913802745312,0,0,0,1
1.235287225337341,0.6763406157682902,-0.6735162802745311,0,0,0,1
-0.30770061466265913,-0.3864082542317099,-0.24993458027453122,0,0,0,1
-2.400215174662659,0.20952673576829012,0.7956642197254689,0,0,0,1
-0.2690472446626591,0.9045566457682901,1.155855419725469,0,0,0,1
2.1095080253373406,0.9814724157682901,0.5738575197254688,0,0,0,1
1.488210225337341,-0.12630794423170988,-0.8079033202745312,0,0,0,1
-1.261271974662659,0.9991921157682901,-0.5333388202745312,0,0,0,1
-1.261271974662659,0.9991921157682901,-0.5333388202745312,0,0,0,1
1.182549025337341,-0.9284126842317099,0.4478596197254688,0,0,0,1
1.182549025337341,-0.9284126842317099,0.4478596197254688,0,0,0,1
0.5510068253373409,-0.41647838423170985,0.5292266197254688,0,0,0,1
0.07613994533734089,0.43105675576829017,0.06986578972546877,0,0,0,1
-1.053806774662659,0.31229651576829015,-0.4070660202745312,0,0,0,1
-1.273914774662659,-0.5795489342317098,-0.23631194027453123,0,0,0,1
-0.27981804466265914,-0.46943343423170986,-0.6007853802745312,0,0,0,1
0.44058276533734086,0.45581154576829014,-0.7233759502745312,0,0,0,1
0.44058276533734086,0.45581154576829014,-0.7233759502745312,0,0,0,1
0.2881398253373409,-0.5376020442317099,0.4218997597254688,0,0,0,1
-0.1654381546626591,0.09774510576829012,0.33601375972546876,0,0,0,1
0.6412749253373409,0.13684730576829013,0.9499094197254688,0,0,0,1
1.179962625337341,0.06810517976829013,0.33755691972546875,0,0,0,1
1.179962625337341,0.06810517976829013,0.33755691972546875,0,0,0,1
-1.508360374662659,-0.2545912342317099,-0.06471363027453123,0,0,0,1
-1.508360374662659,-0.2545912342317099,-0.06471363027453123,0,0,0,1
-1.508360374662659,-0.2545912342317099,-0.06471363027453123,0,0,0,1
-0.10704849466265912,0.7777200157682902,-0.5537117802745312,0,0,0,1
-0.10704849466265912,0.7777200157682902,-0.5537117802745312,0,0,0,1
0.9130492253373409,-1.1994951842317099,-0.6159216502745312,0,0,0,1
-1.130050174662659,-0.3299881042317099,-0.10639122027453123,0,0,0,1
-1.130050174662659,-0.3299881042317099,-0.10639122027453123,0,0,0,1
-1.742971374662659,0.6370934157682901,0.5420106197254688,0,0,0,1
0.5387158553373409,0.9049014657682901,1.019956819725469,0,0,0,1
1.527222125337341,-0.1617095242317099,-0.28157868027453126,0,0,0,1
1.527222125337341,-0.1617095242317099,-0.28157868027453126,0,0,0,1
1.527222125337341,-0.1617095242317099,-0.28157868027453126,0,0,0,1
1.527222125337341,-0.1617095242317099,-0.28157868027453126,0,0,0,1
-1.296047674662659,-0.25070620423170986,-1.4429442802745311,0,0,0,1
-1.464127974662659,-0.28416071423170985,-0.5527590802745311,0,0,0,1
-1.097322974662659,-0.35126591423170983,0.29505809972546876,0,0,0,1
-1.097322974662659,-0.35126591423170983,0.29505809972546876,0,0,0,1
-1.097322974662659,-0.35126591423170983,0.29505809972546876,0,0,0,1
1.274587125337341,-0.10309569423170988,1.1520385197254688,0,0,0,1
1.432194225337341,0.02078084976829013,0.7764817797254688,0,0,0,1
-1.197266074662659,-0.27408528423170986,-0.11036471027453124,0,0,0,1
-1.197266074662659,-0.27408528423170986,-0.11036471027453124,0,0,0,1
-1.267321074662659,0.43485701576829017,-0.40035144027453123,0,0,0,1
0.8972716253373408,1.12068701576829,-0.9819300502745312,0,0,0,1
0.8972716253373408,1.12068701576829,-0.9819300502745312,0,0,0,1
0.5321631553373409,-0.05703569423170987,-0.9005687802745311,0,0,0,1
0.13014079533734088,-0.9038830842317098,-0.3525530402745312,0,0,0,1
0.13014079533734088,-0.9038830842317098,-0.3525530402745312,0,0,0,1
-0.07895611466265912,-1.1941424842317099,0.17813619972546876,0,0,0,1
0.9936251753373408,0.16005222576829012,1.0703711197254688,0,0,0,1
1.749461725337341,0.27221407576829015,0.8648952497254688,0,0,0,1
0.5617222953373409,-0.1981804842317099,0.47621651972546875,0,0,0,1
0.5617222953373409,-0.1981804842317099,0.47621651972546875,0,0,0,1
-0.29366157466265913,0.4449744957682901,-0.7222266802745312,0,0,0,1
-0.29366157466265913,0.4449744957682901,-0.7222266802745312,0,0,0,1
2.836969825337341,-0.12406633423170986,-0.5874589802745311,0,0,0,1
2.836969825337341,-0.12406633423170986,-0.5874589802745311,0,0,0,1
2.836969825337341,-0.12406633423170986,-0.5874589802745311,0,0,0,1
-0.4136042446626591,0.3759763757682901,0.4447711397254688,0,0,0,1
-0.4136042446626591,0.3759763757682901,0.4447711397254688,0,0,0,1
-1.513961274662659,0.06610144976829013,0.6884361197254688,0,0,0,1
-0.4391159746626591,-0.32936621423170986,0.3695572197254688,0,0,0,1
2.1969819253373406,-0.8858822442317098,0.04645594972546878,0,0,0,1
1.245451425337341,0.33447064576829016,-1.0336291802745312,0,0,0,1
0.3539843753373409,0.40820251576829014,-1.012005480274531,0,0,0,1
0.3539843753373409,0.40820251576829014,-1.012005480274531,0,0,0,1
-1.938853274662659,-0.38617588423170984,-0.19084361027453123,0,0,0,1
-2.1539353746626593,0.8145087157682901,0.3904430597254688,0,0,0,1
0.7918219753373409,0.8723266157682902,0.7483019497254688,0,0,0,1
0.7918219753373409,0.8723266157682902,0.7483019497254688,0,0,0,1
1.854333425337341,0.20679031576829013,0.21848877972546876,0,0,0,1
0.3705716253373409,-0.30966668423170984,-0.43336288027453124,0,0,0,1
0.4229788953373409,-0.9617651542317098,-0.11732236027453123,0,0,0,1
-1.018210874662659,-0.5026141242317098,-0.6321693802745312,0,0,0,1
-2.3611058746626594,0.8226493157682901,-1.2440350802745312,0,0,0,1
-2.3611058746626594,0.8226493157682901,-1.2440350802745312,0,0,0,1
1.143910925337341,-0.7937503842317098,-0.5055206102745312,0,0,0,1
0.15313007533734088,-0.17122669423170989,0.11454840972546877,0,0,0,1
0.15313007533734088,-0.17122669423170989,0.11454840972546877,0,0,0,1
0.43131592533734087,0.41311045576829014,0.3531056197254688,0,0,0,1
0.3171906653373409,0.08890511576829013,0.6866554197254688,0,0,0,1
-1.627197774662659,0.27563326576829017,-0.10715201627453123,0,0,0,1
-0.2652172746626591,0.5988920157682901,-0.18383184027453123,0,0,0,1
0.10871364533734089,0.7968941157682902,-0.3266964302745312,0,0,0,1
0.1689047953373409,0.7017432657682902,-1.0745681802745313,0,0,0,1
1.291834325337341,-0.09978703823170987,-0.9953557802745312,0,0,0,1
1.990835725337341,-0.5962408842317098,-0.9014072802745312,0,0,0,1
1.990835725337341,-0.5962408842317098,-0.9014072802745312,0,0,0,1
-2.110722074662659,0.8923290157682902,0.9490058697254689,0,0,0,1
-2.110722074662659,0.8923290157682902,0.9490058697254689,0,0,0,1
-1.758509574662659,1.09233111576829,1.461224419725469,0,0,0,1
-1.758509574662659,1.09233111576829,1.461224419725469,0,0,0,1
3.216574225337341,-0.8701407842317098,0.03692003972546878,0,0,0,1
3.216574225337341,-0.8701407842317098,0.03692003972546878,0,0,0,1
4.489042725337341,-0.2344830742317099,0.3806075697254688,0,0,0,1
4.489042725337341,-0.2344830742317099,0.3806075697254688,0,0,0,1
-3.753069874662659,-2.2448741842317097,-1.3477989802745312,0,0,0,1
-6.5968682746626595,-2.01734608423171,-1.0419360802745312,0,0,0,1
6.661742725337341,1.82495571576829,2.7832186197254685,0,0,0,1
6.661742725337341,1.82495571576829,2.7832186197254685,0,0,0,1
8.486334725337342,1.79478601576829,1.0474830197254688,0,0,0,1
7.214681125337341,1.41875111576829,-1.5981811802745312,0,0,0,1
7.214681125337341,1.41875111576829,-1.5981811802745312,0,0,0,1
-10.290656274662659,1.25960601576829,4.904764819725469,0,0,0,1
-8.909232274662658,3.2173584157682904,5.744506319725469,0,0,0,1
-8.909232274662658,3.2173584157682904,5.744506319725469,0,0,0,1
-8.909232274662658,3.2173584157682904,5.744506319725469,0,0,0,1
-8.909232274662658,3.2173584157682904,5.744506319725469,0,0,0,1
7.648474225337341,-1.7843841842317099,-1.243234680274531,0,0,0,1
1.408812025337341,-4.99878448423171,-11.60719568027453,0,0,0,1
1.408812025337341,-4.99878448423171,-11.60719568027453,0,0,0,1
1.408812025337341,-4.99878448423171,-11.60719568027453,0,0,0,1
-4.068422274662659,0.05925901576829013,-0.5196012802745311,0,0,0,1
-8.627049274662658,4.64765491576829,4.735865319725469,0,0,0,1
-2.2742572746626593,1.02815601576829,3.2248895197254686,0,0,0,1
1.741150425337341,-1.55727528423171,1.9707021197254688,0,0,0,1
1.741150425337341,-1.55727528423171,1.9707021197254688,0,0,0,1
3.996655725337341,-2.7128400842317095,-0.5775760802745312,0,0,0,1
8.287749725337342,-2.6950463842317096,-0.9569925402745312,0,0,0,1
4.4226067253373404,0.41873651576829013,-2.0687580802745313,0,0,0,1
-0.9863610146626591,3.0121331157682905,-2.2914946802745315,0,0,0,1
-3.6300042746626593,2.5275636157682904,-0.6493911802745311,0,0,0,1
-3.6300042746626593,2.5275636157682904,-0.6493911802745311,0,0,0,1
-6.113139574662659,1.54257231576829,1.1957336197254689,0,0,0,1
-6.113139574662659,1.54257231576829,1.1957336197254689,0,0,0,1
1.986103525337341,-0.5906868842317099,0.4667431997254688,0,0,0,1
5.149855125337341,-1.05955448423171,-0.4884845302745312,0,0,0,1
3.1911931253373407,-0.7039763142317098,-0.7684585202745312,0,0,0,1
3.1911931253373407,-0.7039763142317098,-0.7684585202745312,0,0,0,1
-0.26645134466265913,0.08765070576829014,0.10372563972546878,0,0,0,1
-0.26645134466265913,0.08765070576829014,0.10372563972546878,0,0,0,1
0.8523555253373409,0.7639534157682901,0.40299996972546875,0,0,0,1
0.8523555253373409,0.7639534157682901,0.40299996972546875,0,0,0,1
2.0675483253373406,0.40951217576829013,-0.23954061027453122,0,0,0,1
2.0675483253373406,0.40951217576829013,-0.23954061027453122,0,0,0,1
2.7653794253373407,-0.47150288423170983,-1.7358647802745313,0,0,0,1
-1.876112874662659,1.16122251576829,-0.9214079802745312,0,0,0,1
-0.7469305746626591,1.63781381576829,0.7653443497254688,0,0,0,1
0.029211537337340894,0.6979819157682902,0.7195114797254688,0,0,0,1
0.029211537337340894,0.6979819157682902,0.7195114797254688,0,0,0,1
0.5900769253373409,-1.35561798423171,0.9313201197254688,0,0,0,1
0.08774806533734089,0.33224244576829015,0.6248526197254688,0,0,0,1
-0.1189713346626591,1.60510731576829,-0.22548667027453123,0,0,0,1
0.2937770053373409,0.9548997157682901,-0.4784325802745312,0,0,0,1
0.2937770053373409,0.9548997157682901,-0.4784325802745312,0,0,0,1
-0.3679814146626591,-0.6261612842317098,-1.1232843802745311,0,0,0,1
-0.3679814146626591,-0.6261612842317098,-1.1232843802745311,0,0,0,1
-0.8042597746626591,1.4478805157682901,1.2635928197254689,0,0,0,1
-0.8042597746626591,1.4478805157682901,1.2635928197254689,0,0,0,1
-0.8042597746626591,1.4478805157682901,1.2635928197254689,0,0,0,1
1.327158425337341,-0.1266508242317099,1.1139454197254688,0,0,0,1
0.6425843253373409,0.41442068576829016,-0.09106722627453123,0,0,0,1
0.6425843253373409,0.41442068576829016,-0.09106722627453123,0,0,0,1
0.2620368253373409,0.7497810157682901,-0.8653362102745312,0,0,0,1
-0.5263590746626591,0.5017935557682901,-1.2665535802745311,0,0,0,1
-1.628209574662659,1.25777731576829,-1.0142786802745312,0,0,0,1
0.3748307253373409,-0.6181463442317099,0.37117489972546874,0,0,0,1
-0.1702666146626591,-1.55548558423171,0.49931131972546877,0,0,0,1
-0.6618523446626591,-1.43269558423171,1.1197652197254688,0,0,0,1
0.4743571453373409,-0.49677358423170986,1.2777867197254689,0,0,0,1
1.555398525337341,0.9320706157682901,1.053393119725469,0,0,0,1
1.555398525337341,0.9320706157682901,1.053393119725469,0,0,0,1
-0.1506781446626591,1.04979721576829,-0.5268588402745312,0,0,0,1
-0.1506781446626591,1.04979721576829,-0.5268588402745312,0,0,0,1
-1.094202474662659,-0.6838252342317098,-1.6250006802745312,0,0,0,1
-1.631557974662659,0.23977694576829012,-1.1473262802745312,0,0,0,1
-1.134044174662659,0.9279129657682902,-0.16493502027453122,0,0,0,1
1.635048425337341,-0.16559804423170987,0.8572651197254688,0,0,0,1
1.635048425337341,-0.16559804423170987,0.8572651197254688,0,0,0,1
1.635048425337341,-0.16559804423170987,0.8572651197254688,0,0,0,1
1.695744025337341,-0.033008348231709866,0.8230892197254688,0,0,0,1
1.695744025337341,-0.033008348231709866,0.8230892197254688,0,0,0,1
-0.6856722746626591,0.06990523976829013,-0.04468742027453122,0,0,0,1
-1.987091074662659,-0.06565530423170987,-0.44900158027453124,0,0,0,1
-2.077797374662659,0.13983129576829012,-0.40781990027453124,0,0,0,1
-0.28107021466265913,0.5686146157682902,-0.29422775027453124,0,0,0,1
1.911916225337341,0.8658671557682901,-0.09572950027453123,0,0,0,1
1.911916225337341,0.8658671557682901,-0.09572950027453123,0,0,0,1
-0.1614365446626591,-1.55809078423171,-0.3851154202745312,0,0,0,1
-0.1614365446626591,-1.55809078423171,-0.3851154202745312,0,0,0,1
-1.438225274662659,-1.31710848423171,0.2750647897254688,0,0,0,1
-2.238972674662659,0.4985915557682901,0.5233795197254688,0,0,0,1
-2.238972674662659,0.4985915557682901,0.5233795197254688,0,0,0,1
1.011082225337341,1.53887111576829,0.6035204197254688,0,0,0,1
1.011082225337341,1.53887111576829,0.6035204197254688,0,0,0,1
2.3927874253373407,0.48866753576829014,0.20882912972546877,0,0,0,1
1.196925625337341,-0.4330366842317099,-1.0115314802745312,0,0,0,1
-0.3685173746626591,-0.24541686423170989,-1.0661389802745311,0,0,0,1
-2.871934874662659,0.12288396576829012,-0.5489489202745311,0,0,0,1
0.32303954533734086,0.08873208576829013,0.43665143972546877,0,0,0,1
1.476045125337341,0.8521589157682902,0.25766464972546876,0,0,0,1
0.4771561753373409,-0.48730902423170985,-0.17612198027453124,0,0,0,1
0.4771561753373409,-0.48730902423170985,-0.17612198027453124,0,0,0,1
-2.176413474662659,0.35775448576829016,-0.43906538027453124,0,0,0,1
-2.176413474662659,0.35775448576829016,-0.43906538027453124,0,0,0,1
0.1624694053373409,1.37615761576829,0.11799153972546877,0,0,0,1
0.1624694053373409,1.37615761576829,0.11799153972546877,0,0,0,1
0.5767874853373409,0.7520115557682902,-0.07164767527453123,0,0,0,1
1.090280025337341,-0.05407128923170987,-0.4101618802745312,0,0,0,1
1.547059525337341,-0.5020003842317099,-0.26567928027453125,0,0,0,1
1.025133625337341,0.05014165076829013,-0.38445750027453124,0,0,0,1
-0.23703430466265912,0.4470694157682901,-0.48268178027453124,0,0,0,1
-0.8286499746626591,0.007361102768290129,0.7551692197254688,0,0,0,1
-0.8286499746626591,0.007361102768290129,0.7551692197254688,0,0,0,1
-0.2973618346626591,0.1668531457682901,0.5693685197254689,0,0,0,1
-0.2973618346626591,0.1668531457682901,0.5693685197254689,0,0,0,1
1.087317025337341,-0.05620918823170987,0.3555456197254688,0,0,0,1
0.6469426253373409,-0.4148998642317099,-0.2732125802745312,0,0,0,1
0.6469426253373409,-0.4148998642317099,-0.2732125802745312,0,0,0,1
-0.7629675746626591,-0.05892513423170987,-0.5768082502745312,0,0,0,1
-0.7629675746626591,-0.05892513423170987,-0.5768082502745312,0,0,0,1
-0.6122031046626591,0.9688312157682901,-0.4540084802745312,0,0,0,1
-0.12436149866265911,1.36833791576829,-0.4788233402745312,0,0,0,1
1.769604225337341,-0.17646343423170988,-0.23849025027453122,0,0,0,1
0.9322085253373409,-0.21721688423170987,-0.05414930027453122,0,0,0,1
0.9322085253373409,-0.21721688423170987,-0.05414930027453122,0,0,0,1
-0.2527451346626591,0.23159478576829012,0.047799436725468776,0,0,0,1
-0.4486517746626591,-0.35948658423170987,0.20278021972546878,0,0,0,1
-0.4486517746626591,-0.35948658423170987,0.20278021972546878,0,0,0,1
-1.172093874662659,-0.37077078423170984,0.06545873972546877,0,0,0,1
-0.8240465746626591,-0.32685598423170986,-0.023488791274531226,0,0,0,1
0.9444174953373409,-0.6553610342317099,0.07801517972546877,0,0,0,1
1.822182225337341,-0.06811295423170986,-0.15765360027453124,0,0,0,1
-1.856124874662659,-0.26451556423170985,-0.008966358074531226,0,0,0,1
-1.856124874662659,-0.26451556423170985,-0.008966358074531226,0,0,0,1
-1.856124874662659,-0.26451556423170985,-0.008966358074531226,0,0,0,1
-1.856124874662659,-0.26451556423170985,-0.008966358074531226,0,0,0,1
1.116650125337341,0.6691983157682901,-0.14246145027453122,0,0,0,1
1.950121425337341,0.39322651576829015,-0.40075126027453123,0,0,0,1
1.950121425337341,0.39322651576829015,-0.40075126027453123,0,0,0,1
0.9224658253373409,-0.03746123423170987,-0.08188751527453123,0,0,0,1
0.9224658253373409,-0.03746123423170987,-0.08188751527453123,0,0,0,1
-1.435499674662659,1.14218061576829,0.09580632972546876,0,0,0,1
-0.6884274346626591,0.028505283768290125,-0.10800102527453123,0,0,0,1
-0.6884274346626591,0.028505283768290125,-0.10800102527453123,0,0,0,1
-0.26379059466265914,-0.9524930542317098,-0.21299318027453124,0,0,0,1
1.302391525337341,-0.8601778842317098,-0.7364338802745312,0,0,0,1
1.645528325337341,-0.19756994423170987,-0.7840249802745312,0,0,0,1
1.645528325337341,-0.19756994423170987,-0.7840249802745312,0,0,0,1
-1.446960874662659,0.48057188576829013,0.5181690197254688,0,0,0,1
-1.446960874662659,0.48057188576829013,0.5181690197254688,0,0,0,1
-1.049985374662659,0.48379846576829016,0.8086502197254688,0,0,0,1
1.089188125337341,0.34560401576829014,0.6276864197254688,0,0,0,1
1.425969625337341,0.023277315768290126,0.23852380972546877,0,0,0,1
0.8881097253373409,0.10671110576829013,-0.10023883027453123,0,0,0,1
0.8881097253373409,0.10671110576829013,-0.10023883027453123,0,0,0,1
-0.05688713466265911,0.9517497557682901,-0.9160590502745312,0,0,0,1
-0.05688713466265911,0.9517497557682901,-0.9160590502745312,0,0,0,1
-0.3824858546626591,-0.15366124423170988,-0.9312174802745312,0,0,0,1
-0.2955031246626591,-1.24076678423171,0.8106315197254689,0,0,0,1
-0.2955031246626591,-1.24076678423171,0.8106315197254689,0,0,0,1
0.4365029453373409,-0.13755300423170988,1.0953414197254687,0,0,0,1
1.369229825337341,0.5915106757682902,0.7912072797254688,0,0,0,1
1.369229825337341,0.5915106757682902,0.7912072797254688,0,0,0,1
-0.7670464346626591,-0.08883163023170987,-0.029956253274531226,0,0,0,1
-1.466403474662659,-0.04452867423170987,-0.8497874802745312,0,0,0,1
-1.466403474662659,-0.04452867423170987,-0.8497874802745312,0,0,0,1
-0.4712881746626591,-0.12514769423170988,-1.4247392802745311,0,0,0,1
0.8647780553373409,-0.27771608423170985,-1.4911873802745312,0,0,0,1
1.293895225337341,-0.13073366423170987,-1.2193589802745313,0,0,0,1
1.123979125337341,0.0057399157682901285,-0.40403441027453124,0,0,0,1
0.09276153533734088,0.8583870157682901,0.8559031197254688,0,0,0,1
0.09276153533734088,0.8583870157682901,0.8559031197254688,0,0,0,1
-0.2182211746626591,0.5970770157682902,0.6792076197254688,0,0,0,1
-0.04508159966265911,-0.48080382423170986,0.7437263197254689,0,0,0,1
-0.2072872946626591,-0.9008762842317098,0.24006446972546877,0,0,0,1
-0.3391909446626591,0.09902054576829013,-0.10412219027453123,0,0,0,1
-0.008306964062659105,0.8943634157682901,-0.30557958027453125,0,0,0,1
0.7164778853373409,0.8858691657682901,-0.6506197802745312,0,0,0,1
0.7164778853373409,0.8858691657682901,-0.6506197802745312,0,0,0,1
1.010472825337341,0.41989036576829014,-0.5986874402745311,0,0,0,1
1.010472825337341,0.41989036576829014,-0.5986874402745311,0,0,0,1
0.07754565533734088,-0.8482763842317098,-0.3073765402745312,0,0,0,1
-0.9982771746626591,-1.11041448423171,0.08827504372546877,0,0,0,1
-0.9982771746626591,-1.11041448423171,0.08827504372546877,0,0,0,1
-0.6282830046626591,-0.35547040423170984,0.6675852797254688,0,0,0,1
0.4465642253373409,0.5553605757682901,0.6882583197254688,0,0,0,1
0.4465642253373409,0.5553605757682901,0.6882583197254688,0,0,0,1
1.642391725337341,-0.3008602342317099,-1.0560083802745313,0,0,0,1
1.642391725337341,-0.3008602342317099,-1.0560083802745313,0,0,0,1
1.642391725337341,-0.3008602342317099,-1.0560083802745313,0,0,0,1
-1.028891074662659,0.47639341576829014,0.7371123697254688,0,0,0,1
-1.028891074662659,0.47639341576829014,0.7371123697254688,0,0,0,1
2.3374381253373406,0.8777694157682902,-0.22083357027453124,0,0,0,1
-2.3267011746626594,-1.75632738423171,-1.3842923802745313,0,0,0,1
-2.3267011746626594,-1.75632738423171,-1.3842923802745313,0,0,0,1
-0.7325081746626592,1.22718731576829,0.6140187697254689,0,0,0,1
1.792938725337341,1.2286342157682901,1.0580433197254688,0,0,0,1
1.792938725337341,1.2286342157682901,1.0580433197254688,0,0,0,1
-2.7954248746626593,0.6717988157682901,-0.13670805027453123,0,0,0,1
-1.849768574662659,1.13402641576829,-0.5737047802745312,0,0,0,1
-1.849768574662659,1.13402641576829,-0.5737047802745312,0,0,0,1
1.283515425337341,0.7303752157682901,-1.1142847802745313,0,0,0,1
1.283515425337341,0.7303752157682901,-1.1142847802745313,0,0,0,1
1.365167125337341,-0.46519122423170983,-0.8710897302745312,0,0,0,1
1.365167125337341,-0.46519122423170983,-0.8710897302745312,0,0,0,1
-1.832263974662659,-1.13423618423171,0.45824059972546877,0,0,0,1
-1.043344974662659,0.5609004157682902,1.5464981197254688,0,0,0,1
1.566636625337341,0.9534504157682901,0.013867465725468774,0,0,0,1
1.541469125337341,0.10536056576829013,-0.7963059302745312,0,0,0,1
-0.7476858746626591,-0.31488875423170987,-1.8005045802745312,0,0,0,1
-0.7476858746626591,-0.31488875423170987,-1.8005045802745312,0,0,0,1
-2.074292274662659,0.9185848157682901,-0.4209419802745312,0,0,0,1
0.7306456753373409,-0.6251967842317099,0.8031729697254688,0,0,0,1
1.437092325337341,-0.5438933142317098,1.0072720197254688,0,0,0,1
2.156405925337341,-0.41879661423170983,1.0370116197254688,0,0,0,1
1.655947225337341,-0.11349874423170987,0.8948635197254688,0,0,0,1
-0.13763569466265912,0.3788618657682901,0.4560920897254688,0,0,0,1
-2.0070914746626594,-0.05941907723170987,-1.2099580802745311,0,0,0,1
-3.0700468746626592,-1.16189868423171,-1.6216993802745312,0,0,0,1
-3.0700468746626592,-1.16189868423171,-1.6216993802745312,0,0,0,1
-3.636476974662659,-1.40347598423171,-2.1001436802745315,0,0,0,1
0.34158755533734086,1.02665671576829,0.5618195197254688,0,0,0,1
3.5281997253373407,1.17986971576829,0.6812615697254688,0,0,0,1
4.546174725337341,0.44182046576829015,0.7395717797254688,0,0,0,1
4.546174725337341,0.44182046576829015,0.7395717797254688,0,0,0,1
2.6138463253373407,-0.18111626423170987,-0.34122530027453124,0,0,0,1
-0.6470722746626592,-0.9094688842317099,-0.5037626302745312,0,0,0,1
-0.6470722746626592,-0.9094688842317099,-0.5037626302745312,0,0,0,1
-4.872775974662659,-0.8459660242317099,-0.6724111202745312,0,0,0,1
-4.872775974662659,-0.8459660242317099,-0.6724111202745312,0,0,0,1
-0.23915813466265912,1.52643871576829,0.9169847697254688,0,0,0,1
-0.23915813466265912,1.52643871576829,0.9169847697254688,0,0,0,1
3.921984225337341,1.10087091576829,-0.45723298027453124,0,0,0,1
5.592728125337341,0.1380698257682901,-0.5792159202745312,0,0,0,1
6.106841725337341,-0.9083012842317099,-1.0651947802745312,0,0,0,1
0.6854996853373408,-1.89981158423171,-0.9502654402745312,0,0,0,1
0.6854996853373408,-1.89981158423171,-0.9502654402745312,0,0,0,1
-5.446697674662659,0.20967932576829013,0.31886441972546875,0,0,0,1
-5.446697674662659,0.20967932576829013,0.31886441972546875,0,0,0,1
-8.313344274662658,2.3843048157682905,1.2009028197254688,0,0,0,1
1.856501125337341,0.12291258576829013,-1.4551222802745312,0,0,0,1
4.806310225337341,-0.8805319842317099,-1.2266389802745312,0,0,0,1
4.806310225337341,-0.8805319842317099,-1.2266389802745312,0,0,0,1
5.31933742533734,-1.76991368423171,-2.4748733802745315,0,0,0,1
5.31933742533734,-1.76991368423171,-2.4748733802745315,0,0,0,1
-2.8679952746626594,0.6422769657682902,-0.15631214027453122,0,0,0,1
-2.8679952746626594,0.6422769657682902,-0.15631214027453122,0,0,0,1
-2.8679952746626594,0.6422769657682902,-0.15631214027453122,0,0,0,1
-5.6390732746626595,1.93948391576829,2.1835410197254688,0,0,0,1
-5.6390732746626595,1.21865241576829,2.5355793197254686,0,0,0,1
3.956758025337341,-0.7918875842317099,-0.12672558627453123,0,0,0,1
4.061203725337341,-0.8382708242317098,-1.6525443802745312,0,0,0,1
2.1339555253373406,-0.9216105142317098,-2.8436393802745314,0,0,0,1
2.1339555253373406,-0.9216105142317098,-2.8436393802745314,0,0,0,1
-4.226460274662659,0.6849757157682902,-1.257878480274531,0,0,0,1
-5.3516722746626595,1.74792311576829,0.4608103897254688,0,0,0,1
-2.8286522746626592,1.19159281576829,1.8378911197254688,0,0,0,1
0.18616916533734088,0.1952550557682901,1.5905144197254688,0,0,0,1
0.18616916533734088,0.1952550557682901,1.5905144197254688,0,0,0,1
3.559183725337341,-0.9702245842317099,0.5506753597254688,0,0,0,1
3.8907007253373407,-1.08299878423171,-0.022088082274531226,0,0,0,1
-1.600441474662659,0.6503781157682902,-1.1501669802745311,0,0,0,1
-4.036805274662659,1.04525341576829,-1.7936134802745312,0,0,0,1
-3.731820074662659,0.5645887157682902,-1.4030203802745311,0,0,0,1
-1.671128774662659,0.23566657576829012,-0.19257882027453124,0,0,0,1
0.09444381533734089,0.09353159576829013,0.3036858697254688,0,0,0,1
1.971948125337341,-0.27106628423170986,0.18905469972546876,0,0,0,1
3.6623855253373407,-0.8240283842317099,0.7804667597254689,0,0,0,1
3.1453614253373408,-0.5291882842317098,0.6976791197254688,0,0,0,1
-1.700198674662659,0.6090851657682902,0.2984619997254688,0,0,0,1
-2.8908772746626594,0.9185591157682902,-0.11245182027453123,0,0,0,1
-2.524716274662659,0.8025297657682902,-0.5675232802745311,0,0,0,1
-0.8412117746626591,0.01633408276829013,-0.9230665302745312,0,0,0,1
0.8684153753373409,-0.36257258423170985,-0.8468191802745312,0,0,0,1
2.2328601253373406,-0.22856978423170987,-0.6778083202745312,0,0,0,1
2.7562137253373407,-0.12052647423170987,-0.10806528027453123,0,0,0,1
2.7562137253373407,-0.12052647423170987,-0.10806528027453123,0,0,0,1
1.625373425337341,-0.46442962423170986,0.11009892972546877,0,0,0,1
-2.0969562746626593,-0.08624747423170986,0.7068125197254689,0,0,0,1
-0.3071236446626591,0.9697118157682901,0.12652262972546877,0,0,0,1
-0.3071236446626591,0.9697118157682901,0.12652262972546877,0,0,0,1
1.031819825337341,0.15056924576829012,-0.6096625802745311,0,0,0,1
-1.058090674662659,0.2291094157682901,-0.13789871027453124,0,0,0,1
-1.420914174662659,0.7286026657682901,0.16611024972546878,0,0,0,1
0.8768134253373409,0.11561016576829013,0.41453465972546877,0,0,0,1
0.8768134253373409,0.11561016576829013,0.41453465972546877,0,0,0,1
1.917220625337341,-0.006749865231709871,0.08329101972546878,0,0,0,1
-0.42031143466265913,-0.41749863423170985,-0.6564104802745312,0,0,0,1
-0.6903157046626591,-0.12762781423170988,-0.6561833802745312,0,0,0,1
-0.4741654246626591,0.38265861576829013,-0.5936148502745312,0,0,0,1
1.292275925337341,0.13936746576829012,-0.20316234027453123,0,0,0,1
1.293213425337341,0.14100441576829012,-0.19685128027453122,0,0,0,1
0.8452506253373409,-0.34676830423170985,0.21941419972546877,0,0,0,1
-0.0472521616626591,-0.5984724842317098,0.32271178972546877,0,0,0,1
-0.24967048466265912,1.21846351576829,0.017021505725468775,0,0,0,1
0.2621236053373409,0.7129524157682902,-0.24471131027453122,0,0,0,1
0.2621236053373409,0.7129524157682902,-0.24471131027453122,0,0,0,1
-0.4019474746626591,-1.19137298423171,-1.0630583802745313,0,0,0,1
-0.9664625746626591,-0.6890669842317099,-1.0030253202745312,0,0,0,1
-0.1241440646626591,-0.009594720231709871,-0.39735511027453124,0,0,0,1
0.7999949653373409,0.8093651757682901,0.23992677972546878,0,0,0,1
0.5297541753373409,0.5683033657682901,0.38508291972546876,0,0,0,1
0.5297541753373409,0.5683033657682901,0.38508291972546876,0,0,0,1
0.1793198753373409,0.005961168268290129,-0.13799313027453122,0,0,0,1
-0.5189881146626592,0.32261945576829015,-0.45916560027453124,0,0,0,1
-0.5189881146626592,0.32261945576829015,-0.45916560027453124,0,0,0,1
-0.6982397746626591,-0.1525115042317099,-0.5920505802745312,0,0,0,1
-0.1480479046626591,-0.1547002342317099,-0.5130957802745312,0,0,0,1
0.5582156253373409,-0.18936004423170988,-0.20008889027453122,0,0,0,1
0.5582156253373409,-0.18936004423170988,-0.20008889027453122,0,0,0,1
0.26214172533734087,-0.9205145842317098,0.4102457497254688,0,0,0,1
-0.06902645466265911,1.07147561576829,0.03640803572546878,0,0,0,1
-0.06902645466265911,1.07147561576829,0.03640803572546878,0,0,0,1
0.6155085753373409,0.7295680157682901,-0.4944577502745312,0,0,0,1
-0.0578770476626591,-0.24255856423170988,-0.8194854802745312,0,0,0,1
-1.056212874662659,-0.7506565842317099,-1.713395180274531,0,0,0,1
-0.010440333662659106,0.5975408757682902,0.14803847972546877,0,0,0,1
-0.010440333662659106,0.5975408757682902,0.14803847972546877,0,0,0,1
0.4455294753373409,0.9564142157682901,1.181271619725469,0,0,0,1
0.4455294753373409,0.9564142157682901,1.181271619725469,0,0,0,1
-0.46326015466265913,-0.5913147142317099,-0.020358117274531226,0,0,0,1
-0.46326015466265913,-0.5913147142317099,-0.020358117274531226,0,0,0,1
-1.326733074662659,-0.1668045142317099,-1.0276173802745312,0,0,0,1
-0.8392395746626591,0.6038192157682901,-0.9288057402745312,0,0,0,1
0.3163962553373409,-0.03557876923170987,-0.7354201402745312,0,0,0,1
0.2229571453373409,-0.6830460842317099,-0.42094998027453123,0,0,0,1
0.2229571453373409,-0.6830460842317099,-0.42094998027453123,0,0,0,1
0.2229571453373409,-0.6830460842317099,-0.42094998027453123,0,0,0,1
0.10117007933734089,-0.11989605423170988,0.9121311197254688,0,0,0,1
-0.4493002746626591,0.42758791576829014,1.1888055197254688,0,0,0,1
-0.3680167046626591,0.6683668157682902,0.8867231897254688,0,0,0,1
-0.3680167046626591,0.6683668157682902,0.8867231897254688,0,0,0,1
-1.008972674662659,0.6056122157682902,-0.7539336802745312,0,0,0,1
-1.529891474662659,0.021601501768290128,-1.6646378802745312,0,0,0,1
-1.529891474662659,0.021601501768290128,-1.6646378802745312,0,0,0,1
-0.4132933446626591,-0.6724586342317098,-1.6393072802745312,0,0,0,1
1.135249625337341,-1.27853678423171,-0.7638433302745312,0,0,0,1
1.536551025337341,0.23439699576829012,0.7291758197254689,0,0,0,1
1.536551025337341,0.23439699576829012,0.7291758197254689,0,0,0,1
0.7098164753373409,0.01670730476829013,1.2340794197254688,0,0,0,1
-0.7425017146626591,-0.21044666423170988,1.8695026197254687,0,0,0,1
-2.163096874662659,0.8781225157682901,1.4432365197254688,0,0,0,1
0.10088111533734088,0.47127275576829014,0.4116295197254688,0,0,0,1
0.10088111533734088,0.47127275576829014,0.4116295197254688,0,0,0,1
1.616435525337341,-0.19437962423170987,-0.7251427502745311,0,0,0,1
1.692605525337341,-0.7473449542317099,-2.0214560802745316,0,0,0,1
1.477901025337341,-1.04518518423171,-2.4185221802745316,0,0,0,1
0.6192622253373409,-0.5254838242317098,-0.08600405027453123,0,0,0,1
-1.559174974662659,1.38939241576829,1.060480819725469,0,0,0,1
0.5616784253373409,0.2137852957682901,1.5901832197254688,0,0,0,1
2.0947089253373408,-0.7984388842317098,1.3959290197254688,0,0,0,1
1.047853925337341,-1.39659798423171,0.25320633972546874,0,0,0,1
0.4193930753373409,-1.51403048423171,0.10852631972546876,0,0,0,1
0.4193930753373409,-1.51403048423171,0.10852631972546876,0,0,0,1
-2.058104974662659,0.9603925157682901,-0.8343354802745312,0,0,0,1
-0.1868862946626591,1.21989211576829,-0.8937125802745312,0,0,0,1
2.0340352253373406,0.8988689157682901,-0.8399777802745312,0,0,0,1
2.0340352253373406,0.8988689157682901,-0.8399777802745312,0,0,0,1
2.0340352253373406,0.8988689157682901,-0.8399777802745312,0,0,0,1
1.585545125337341,-0.48758108423170987,0.2878412897254688,0,0,0,1
1.585545125337341,-0.48758108423170987,0.2878412897254688,0,0,0,1
1.585545125337341,-0.48758108423170987,0.2878412897254688,0,0,0,1
-2.172408074662659,0.42717524576829013,1.0018117197254688,0,0,0,1
-2.5399345746626594,0.011687714768290128,0.6289227197254689,0,0,0,1
0.007368580337340895,-0.6639076242317099,0.3205254997254688,0,0,0,1
2.019126425337341,-0.5837691242317099,-0.5830083202745312,0,0,0,1
1.714359725337341,-0.32141755423170987,-1.275993280274531,0,0,0,1
0.9690089253373408,-0.38034204423170986,-1.7178183802745313,0,0,0,1
0.7459340253373409,-0.46618263423170986,-1.328872880274531,0,0,0,1
0.7459340253373409,-0.46618263423170986,-1.328872880274531,0,0,0,1
0.7459340253373409,-0.46618263423170986,-1.328872880274531,0,0,0,1
0.5097222253373409,-0.30160988423170987,0.8451186197254689,0,0,0,1
-0.9169049146626591,-0.05015352023170987,-1.629948280274531,0,0,0,1
-0.9169049146626591,-0.05015352023170987,-1.629948280274531,0,0,0,1
-0.9169049146626591,-0.05015352023170987,-1.629948280274531,0,0,0,1
-0.9170422346626591,-0.05119572223170987,-1.6307744802745312,0,0,0,1
0.9871039253373409,0.6286336157682901,0.5132794197254689,0,0,0,1
0.9871039253373409,0.6286336157682901,0.5132794197254689,0,0,0,1
0.6710143253373408,0.21999962576829013,0.7202428197254688,0,0,0,1
-1.587564974662659,0.04022115776829013,0.8131965197254688,0,0,0,1
-1.460919874662659,-0.06862646023170987,0.5104705197254689,0,0,0,1
-0.8332209446626591,0.36210361576829014,-0.4707229402745312,0,0,0,1
0.8885150253373408,-0.6358385842317098,-1.1946284802745313,0,0,0,1
0.8885150253373408,-0.6358385842317098,-1.1946284802745313,0,0,0,1
0.8719630253373409,-0.1313263842317099,-1.0767133802745312,0,0,0,1
0.8719630253373409,-0.1313263842317099,-1.0767133802745312,0,0,0,1
0.1131758853373409,1.04901831576829,-0.18733576027453122,0,0,0,1
-1.419995774662659,-0.8319810842317099,0.6416693197254688,0,0,0,1
-1.419995774662659,-0.8319810842317099,0.6416693197254688,0,0,0,1
-2.1677932746626594,-1.09928818423171,0.8391591197254689,0,0,0,1
-2.1677932746626594,-1.09928818423171,0.8391591197254689,0,0,0,1
-1.096332974662659,-0.8821666842317099,1.0314873197254688,0,0,0,1
0.4838433453373409,-0.05817346723170987,0.7580423597254689,0,0,0,1
1.160177725337341,0.8839814157682901,-0.2843778402745312,0,0,0,1
0.6226344253373409,-0.5540043842317098,-1.2973747802745312,0,0,0,1
-1.156514674662659,-0.6740610842317099,-1.265909680274531,0,0,0,1
-1.156514674662659,-0.6740610842317099,-1.265909680274531,0,0,0,1
-2.2537407746626594,0.40463374576829014,-0.9142935802745312,0,0,0,1
-1.454861174662659,0.9840936857682901,0.15177925972546877,0,0,0,1
0.07285644533734088,0.7590077157682902,0.43177577972546877,0,0,0,1
1.094284525337341,0.37915648576829014,0.8668707897254688,0,0,0,1
1.504597225337341,0.05313120376829013,0.48727365972546877,0,0,0,1
-0.9581894746626591,-0.8861220842317099,-0.8761123802745312,0,0,0,1
-0.9581894746626591,-0.8861220842317099,-0.8761123802745312,0,0,0,1
-0.9581894746626591,-0.8861220842317099,-0.8761123802745312,0,0,0,1
-2.1933532746626594,-1.31721138423171,-1.2129640802745312,0,0,0,1
0.2152562253373409,0.6115483157682902,0.48037638972546876,0,0,0,1
1.996568225337341,0.5045597757682901,0.44788391972546876,0,0,0,1
2.5195097253373406,0.026999558768290126,0.4744928797254688,0,0,0,1
2.5195097253373406,0.026999558768290126,0.4744928797254688,0,0,0,1
2.5195097253373406,0.026999558768290126,0.4744928797254688,0,0,0,1
-0.41098259466265913,-0.26678728423170983,0.24017318972546878,0,0,0,1
-2.021438574662659,0.7097132157682902,-0.3304949102745312,0,0,0,1
-2.021438574662659,0.7097132157682902,-0.3304949102745312,0,0,0,1
-0.6115708146626591,0.38270713576829013,-0.4763219802745312,0,0,0,1
1.717612725337341,-0.21789231423170988,-0.7295352802745312,0,0,0,1
1.755855125337341,0.12061776576829013,-0.3736554802745312,0,0,0,1
1.755855125337341,0.12061776576829013,-0.3736554802745312,0,0,0,1
1.199163925337341,0.27731521576829016,0.04998060972546878,0,0,0,1
1.199163925337341,0.27731521576829016,0.04998060972546878,0,0,0,1
-1.306289174662659,-0.28648976423170985,0.42620404972546877,0,0,0,1
-1.837472874662659,-0.6153382442317099,0.7533343697254689,0,0,0,1
-1.364747474662659,-0.9753333142317099,0.8171340497254689,0,0,0,1
-0.10005424466265911,-0.5619445842317099,0.6044739197254688,0,0,0,1
1.309565125337341,0.05971467076829013,0.25838991972546876,0,0,0,1
1.483974925337341,-0.32682235423170986,-0.7300369802745311,0,0,0,1
-0.2068981946626591,-0.5109479242317099,-0.6928962802745312,0,0,0,1
-0.2068981946626591,-0.5109479242317099,-0.6928962802745312,0,0,0,1
-1.310273674662659,-0.017460626231709873,-0.19312933027453122,0,0,0,1
-0.5838446746626591,0.15774336576829012,0.18707283972546876,0,0,0,1
1.526462125337341,0.16426605576829012,0.48612716972546877,0,0,0,1
1.630903725337341,-0.33471666423170987,0.5249880197254688,0,0,0,1
1.630903725337341,-0.33471666423170987,0.5249880197254688,0,0,0,1
-0.7402491446626591,-0.0006374980317098715,0.24574168972546878,0,0,0,1
-0.6596112046626591,0.5885749157682901,0.19748040972546876,0,0,0,1
0.22025443533734088,0.4232978157682901,0.13347192972546876,0,0,0,1
1.098805925337341,-0.2689780842317099,0.5585176197254689,0,0,0,1
0.7529998253373409,-0.1441171742317099,0.23291548972546877,0,0,0,1
0.7529998253373409,-0.1441171742317099,0.23291548972546877,0,0,0,1
0.18202544533734089,-0.2435174542317099,0.41132976972546875,0,0,0,1
0.21325637533734088,-0.8794121842317099,0.41840919972546875,0,0,0,1
-0.2400202546626591,0.34021853576829014,0.5157332197254688,0,0,0,1
-0.2400202546626591,0.34021853576829014,0.5157332197254688,0,0,0,1
0.41549350533734086,0.36885281576829015,0.5731122797254689,0,0,0,1
0.12300826533734088,-0.04174373723170987,0.46650651972546875,0,0,0,1
0.9953141253373409,-0.6432891842317099,0.4632166197254688,0,0,0,1
0.9953141253373409,-0.6432891842317099,0.4632166197254688,0,0,0,1
1.262080725337341,0.05966002076829013,0.3172734197254688,0,0,0,1
0.24457027533734088,0.5794160157682902,0.21666666972546877,0,0,0,1
-0.5317063146626592,-0.1392948642317099,0.35515745972546875,0,0,0,1
-1.343095274662659,-0.8824276842317098,0.36799528972546874,0,0,0,1
-1.155015474662659,-0.4071061442317099,0.16291996972546877,0,0,0,1
0.3230939053373409,-0.40626121423170986,0.3778404197254688,0,0,0,1
1.260347825337341,-0.6740096842317098,0.26567561972546877,0,0,0,1
1.260347825337341,-0.6740096842317098,0.26567561972546877,0,0,0,1
0.9244122653373409,-0.17455618423170988,0.042166082725468776,0,0,0,1
0.5682282653373409,-0.07638542023170987,0.22140892972546877,0,0,0,1
-0.5814585746626592,0.11900885576829014,0.12164660972546876,0,0,0,1
-1.384899574662659,0.25428505576829014,0.33195849972546876,0,0,0,1
-1.384899574662659,0.25428505576829014,0.33195849972546876,0,0,0,1
0.8888535653373408,0.6715527157682901,0.10671826972546877,0,0,0,1
0.8888535653373408,0.6715527157682901,0.10671826972546877,0,0,0,1
1.442351825337341,-0.43876476423170985,0.14439394972546876,0,0,0,1
-0.1596264746626591,-0.6696136842317099,0.3228146697254688,0,0,0,1
-0.4255547346626591,-0.6476027142317099,0.7920633197254688,0,0,0,1
-0.3187241346626591,-1.41941188423171,0.6549334797254688,0,0,0,1
-0.3187241346626591,-1.41941188423171,0.6549334797254688,0,0,0,1
1.576737925337341,0.17700483576829013,0.050418166725468776,0,0,0,1
1.576737925337341,0.17700483576829013,0.050418166725468776,0,0,0,1
1.576737925337341,0.17700483576829013,0.050418166725468776,0,0,0,1
-1.730404374662659,-0.6077459842317099,-0.035866650274531224,0,0,0,1
-1.730404374662659,-0.6077459842317099,-0.035866650274531224,0,0,0,1
-0.3172707446626591,0.8971828157682902,0.3378367697254688,0,0,0,1
1.597716825337341,0.46351583576829014,0.35535337972546877,0,0,0,1
2.215302025337341,-0.12364284423170986,0.21338268972546878,0,0,0,1
1.650699125337341,-0.5747871242317099,0.07775362972546877,0,0,0,1
0.8419308853373408,-0.5927596842317099,0.22407927972546876,0,0,0,1
0.8419308853373408,-0.5927596842317099,0.22407927972546876,0,0,0,1
-2.1763286746626593,0.5147790157682901,0.24066456972546876,0,0,0,1
-2.3428954746626593,0.37682627576829014,0.34705206972546876,0,0,0,1
-1.198314174662659,-0.05970666923170987,0.5152491197254688,0,0,0,1
-1.198314174662659,-0.05970666923170987,0.5152491197254688,0,0,0,1
-1.198314174662659,-0.05970666923170987,0.5152491197254688,0,0,0,1
0.16276408533734088,-0.40377844423170983,0.20326873972546877,0,0,0,1
2.708353525337341,-0.7974969842317099,0.13182117972546878,0,0,0,1
2.708353525337341,-0.7974969842317099,0.13182117972546878,0,0,0,1
1.991410725337341,-0.7330702842317098,0.29258658972546875,0,0,0,1
-2.0102095746626594,0.9362327157682901,0.28176268972546875,0,0,0,1
-2.2428254746626592,0.8537611157682902,0.5408124597254689,0,0,0,1
-1.510314474662659,0.08432741576829013,0.20714392972546877,0,0,0,1
-0.4488873346626591,-0.5489567842317099,0.16523047972546878,0,0,0,1
2.6770187253373408,-0.4202204842317099,-0.2800431002745312,0,0,0,1
2.6770187253373408,-0.4202204842317099,-0.2800431002745312,0,0,0,1
0.3503642253373409,0.6121299157682901,-0.29029110027453126,0,0,0,1
-2.539137774662659,0.02025242576829013,0.5856771197254689,0,0,0,1
-2.5816053746626593,-0.34966228423170986,0.5593621197254688,0,0,0,1
-0.7564453746626592,-0.41738642423170985,0.8157346197254688,0,0,0,1
1.571626225337341,-0.10474644423170987,0.7596489197254688,0,0,0,1
1.938674425337341,0.32847549576829016,-0.23897514027453123,0,0,0,1
1.938674425337341,0.32847549576829016,-0.23897514027453123,0,0,0,1
0.28835059533734086,-0.2657284542317099,-0.31934568027453125,0,0,0,1
-2.8124594746626594,0.2567044157682901,-0.14879128027453123,0,0,0,1
-2.8124594746626594,0.2567044157682901,-0.14879128027453123,0,0,0,1
-1.951816074662659,0.5823187157682902,0.06175723472546878,0,0,0,1
0.27754356533734087,0.5885991157682902,0.37118416972546875,0,0,0,1
2.4988704253373406,0.06870813976829013,0.07406368972546877,0,0,0,1
2.4988704253373406,0.06870813976829013,0.07406368972546877,0,0,0,1
1.978164225337341,-0.8154370842317099,-0.018205733274531226,0,0,0,1
-2.3501123746626593,-0.06851623423170987,0.28901431972546876,0,0,0,1
-2.737653274662659,0.49367571576829017,0.6450142497254688,0,0,0,1
-2.737653274662659,0.49367571576829017,0.6450142497254688,0,0,0,1
-1.511568574662659,0.5667012157682901,0.8737752697254688,0,0,0,1
1.214528625337341,-0.1437161942317099,-0.019368024274531225,0,0,0,1
1.214528625337341,-0.1437161942317099,-0.019368024274531225,0,0,0,1
2.8352627253373406,-0.8177453842317098,-0.3726687802745312,0,0,0,1
2.2480273253373406,-0.9990148842317098,-0.25928788027453126,0,0,0,1
-0.4569020146626591,-0.20440505423170988,-0.15996108027453124,0,0,0,1
-1.292061274662659,0.8263148157682901,0.6291435197254688,0,0,0,1
-1.292061274662659,0.8263148157682901,0.6291435197254688,0,0,0,1
1.173060925337341,-0.6637867542317099,-0.19246104027453123,0,0,0,1
1.173060925337341,-0.6637867542317099,-0.19246104027453123,0,0,0,1
0.4746728153373409,-0.2390923342317099,0.13703247972546878,0,0,0,1
-0.6588310746626591,0.7896180157682902,0.14673929972546876,0,0,0,1
-0.6588310746626591,0.7896180157682902,0.14673929972546876,0,0,0,1
-0.7378630746626591,0.6920373157682902,0.40758337972546876,0,0,0,1
-0.7428126146626591,-0.07452954023170986,0.15362879972546878,0,0,0,1
0.1825328053373409,-0.34067906423170985,0.11520596972546877,0,0,0,1
0.1825328053373409,-0.34067906423170985,0.11520596972546877,0,0,0,1
1.510527125337341,-0.1398922042317099,-0.019478710274531224,0,0,0,1
1.510527125337341,-0.1398922042317099,-0.019478710274531224,0,0,0,1
-0.8109774446626591,-0.02277920823170987,0.21878584972546877,0,0,0,1
-0.9400658446626591,0.43085331576829017,0.3275156897254688,0,0,0,1
-0.9400658446626591,0.43085331576829017,0.3275156897254688,0,0,0,1
-0.9400658446626591,0.43085331576829017,0.3275156897254688,0,0,0,1
0.2647509753373409,0.28248121576829016,-0.14189950027453124,0,0,0,1
0.2647509753373409,0.28248121576829016,-0.14189950027453124,0,0,0,1
0.3101029553373409,-1.09985918423171,-0.41114876027453123,0,0,0,1
-0.8211235746626591,-0.8466373542317098,-0.13747069027453124,0,0,0,1
-1.058754474662659,0.16614149576829013,0.40745871972546877,0,0,0,1
-0.12082241466265911,1.29164701576829,0.4467169197254688,0,0,0,1
0.7779269253373409,1.27281741576829,0.46969907972546876,0,0,0,1
0.7779269253373409,1.27281741576829,0.46969907972546876,0,0,0,1
-0.23342941466265912,-0.5596456342317099,0.004477350725468774,0,0,0,1
-0.23342941466265912,-0.5596456342317099,0.004477350725468774,0,0,0,1
-1.033980874662659,0.1821044857682901,0.12524371972546877,0,0,0,1
-1.033980874662659,0.1821044857682901,0.12524371972546877,0,0,0,1
-0.5969338246626591,0.8499157657682902,-0.21524820027453123,0,0,0,1
0.4758601253373409,0.6690668157682902,-0.10890999627453123,0,0,0,1
0.9787640753373409,-0.31293235423170984,-0.2533684102745312,0,0,0,1
0.9787640753373409,-0.31293235423170984,-0.2533684102745312,0,0,0,1
0.5499949653373409,-0.7514117842317098,-0.3058681802745312,0,0,0,1
-0.09810493466265911,-0.4751465442317099,0.031679896725468774,0,0,0,1
-0.3069109746626591,0.41604741576829013,0.7901232197254688,0,0,0,1
-0.8737740346626591,0.7105012157682902,0.5134264197254689,0,0,0,1
-0.8737740346626591,0.7105012157682902,0.5134264197254689,0,0,0,1
-0.4051956946626591,-0.28378696423170985,0.2531064997254688,0,0,0,1
0.008938328337340894,0.05236108976829013,0.059575109725468776,0,0,0,1
0.6589961253373409,0.5855774457682902,-0.23122916027453122,0,0,0,1
0.6589961253373409,0.5855774457682902,-0.23122916027453122,0,0,0,1
0.8087048653373409,0.5569496157682902,-0.3353356402745312,0,0,0,1
-0.29897354466265913,0.5497848557682902,-0.18925122027453123,0,0,0,1
0.1412530153373409,-0.29915754423170987,0.060790864725468775,0,0,0,1
0.4875655253373409,-0.16938958423170988,-0.013897450274531226,0,0,0,1
0.18710376533734088,-0.7041146842317099,0.4001291197254688,0,0,0,1
0.18710376533734088,-0.7041146842317099,0.4001291197254688,0,0,0,1
-0.6065878746626591,0.9611643757682902,0.5437488197254688,0,0,0,1
0.9086013253373408,0.7938864157682901,0.04498770672546878,0,0,0,1
0.5373082253373409,0.03343455876829013,-0.40780100027453126,0,0,0,1
-0.9335369746626591,-0.38970203423170985,-0.27176401027453123,0,0,0,1
-0.9335369746626591,-0.38970203423170985,-0.27176401027453123,0,0,0,1
-0.9335369746626591,-0.38970203423170985,-0.27176401027453123,0,0,0,1
0.8080916553373408,0.8817108457682902,0.5280720897254688,0,0,0,1
0.3489585053373409,-0.07147834823170987,0.27726901972546875,0,0,0,1
0.5029139653373409,-0.45914468423170984,0.2561001497254688,0,0,0,1
0.5029139653373409,-0.45914468423170984,0.2561001497254688,0,0,0,1
-0.0771641546626591,0.41538631576829016,-0.16639841027453123,0,0,0,1
-0.0771641546626591,0.41538631576829016,-0.16639841027453123,0,0,0,1
-0.5860218746626591,0.28442184576829016,-0.27788758027453125,0,0,0,1
-0.5860218746626591,0.28442184576829016,-0.27788758027453125,0,0,0,1
-0.7312130746626591,-0.22668526423170987,-0.48852044027453123,0,0,0,1
1.288381125337341,0.26808153576829014,0.029896734725468773,0,0,0,1
1.288381125337341,0.26808153576829014,0.029896734725468773,0,0,0,1
1.162633425337341,0.7645639157682902,0.08131187972546877,0,0,0,1
0.5624346853373409,0.5798456857682901,0.18827849972546878,0,0,0,1
-0.6206030746626591,0.26129199576829015,0.3734917197254688,0,0,0,1
-1.069132274662659,0.6692012157682902,-0.010166080274531225,0,0,0,1
-0.19205711466265912,0.4206750557682901,-0.2696245302745312,0,0,0,1
0.9166398253373409,-0.2128294842317099,-0.5787749802745312,0,0,0,1
0.8656001253373409,-0.6309193142317099,-0.6233805802745311,0,0,0,1
0.6120639253373409,-0.26088888423170986,-0.6942528802745311,0,0,0,1
0.5234303653373409,0.5144393657682902,0.03699925372546878,0,0,0,1
-1.409544474662659,0.41129551576829015,0.23081015972546878,0,0,0,1
-1.409544474662659,0.41129551576829015,0.23081015972546878,0,0,0,1
-1.409544474662659,0.41129551576829015,0.23081015972546878,0,0,0,1
-0.2538838246626591,-0.6577692842317099,0.6081871697254688,0,0,0,1
0.9468932253373409,0.21625373576829013,0.7409840497254688,0,0,0,1
1.557549025337341,0.9330404157682901,-0.36495611027453123,0,0,0,1
0.6308322253373408,0.34357781576829016,-0.7681888802745311,0,0,0,1
0.6308322253373408,0.34357781576829016,-0.7681888802745311,0,0,0,1
-1.088928674662659,0.015348586768290129,-0.7868867202745312,0,0,0,1
-1.819295374662659,0.3241965157682901,-0.44848648027453125,0,0,0,1
-0.2313141646626591,0.41901268576829015,0.04053863772546878,0,0,0,1
-0.2313141646626591,0.41901268576829015,0.04053863772546878,0,0,0,1
1.284868725337341,0.5571252157682901,0.28208097972546875,0,0,0,1
2.161455725337341,0.41205747576829016,0.3045282197254688,0,0,0,1
-1.375665174662659,-0.5841884842317099,-0.14558944027453122,0,0,0,1
-1.376587374662659,-0.5898171442317098,-0.16618616027453123,0,0,0,1
-1.376587374662659,-0.5898171442317098,-0.16618616027453123,0,0,0,1
-2.7025618746626594,0.11725324576829013,0.16433371972546876,0,0,0,1
0.5070595853373409,0.6925704157682901,-0.36806818027453125,0,0,0,1
2.1626105253373407,0.04960038876829013,-0.7941360802745312,0,0,0,1
2.4760890253373407,-0.9052199542317099,-1.056075380274531,0,0,0,1
1.089112725337341,-1.00513908423171,-0.6330081802745312,0,0,0,1
-0.8373541746626592,0.19876949576829012,-0.41256438027453124,0,0,0,1
-1.810011374662659,1.46873511576829,-0.03716728227453123,0,0,0,1
-1.472898974662659,1.61783491576829,0.2718652197254688,0,0,0,1
-0.7631068046626591,0.7739045757682902,0.21409028972546876,0,0,0,1
1.050126525337341,-0.4748942842317099,-0.5476078102745312,0,0,0,1
1.693694625337341,-1.08997738423171,-0.6934478802745312,0,0,0,1
1.693694625337341,-1.08997738423171,-0.6934478802745312,0,0,0,1
-0.9167752146626591,0.19981023576829013,-0.43726933027453124,0,0,0,1
-0.9167752146626591,0.19981023576829013,-0.43726933027453124,0,0,0,1
-1.696475474662659,0.8621156157682901,-0.08634129027453123,0,0,0,1
-1.112596974662659,0.2982849357682901,-0.26172251027453125,0,0,0,1
2.2339349253373406,-0.7645216842317099,-0.6934823102745312,0,0,0,1
1.946485025337341,-0.8780989842317098,-0.6394645302745312,0,0,0,1
1.946485025337341,-0.8780989842317098,-0.6394645302745312,0,0,0,1
-0.9658436746626591,0.7401025457682902,-0.7108361402745311,0,0,0,1
-0.9658436746626591,0.7401025457682902,-0.7108361402745311,0,0,0,1
-0.6327032746626591,0.7107063757682901,-0.44431111027453124,0,0,0,1
-1.238031874662659,-0.26998668423170985,-0.5462302802745311,0,0,0,1
-1.238031874662659,-0.26998668423170985,-0.5462302802745311,0,0,0,1
0.017943875337340896,-0.24549080423170988,-0.43577680027453125,0,0,0,1
1.794108925337341,-0.4423420242317099,-0.4423795102745312,0,0,0,1
0.49076129533734086,-0.22428495423170988,-0.39262328027453125,0,0,0,1
0.49076129533734086,-0.22428495423170988,-0.39262328027453125,0,0,0,1
-0.5026621746626591,0.7577793757682901,-0.4395161602745312,0,0,0,1
-0.5026621746626591,0.7577793757682901,-0.4395161602745312,0,0,0,1
2.4594407253373407,0.02321069276829013,-0.8650155802745312,0,0,0,1
2.4594407253373407,0.02321069276829013,-0.8650155802745312,0,0,0,1
2.4594407253373407,0.02321069276829013,-0.8650155802745312,0,0,0,1
0.11365749033734089,-0.35439658423170983,-1.1213408802745313,0,0,0,1
0.11365749033734089,-0.35439658423170983,-1.1213408802745313,0,0,0,1
-1.514443874662659,0.26501716576829015,-0.41389111027453124,0,0,0,1
-1.514443874662659,0.26501716576829015,-0.41389111027453124,0,0,0,1
-0.5631556346626592,0.5952057157682902,0.16869511972546877,0,0,0,1
2.709198525337341,-0.14805920423170987,-0.4363761302745312,0,0,0,1
1.869380525337341,-1.15540908423171,-0.8795527802745312,0,0,0,1
0.3049264253373409,-2.11663628423171,-1.0592196802745313,0,0,0,1
0.3049264253373409,-2.11663628423171,-1.0592196802745313,0,0,0,1
-1.372628674662659,-1.21207638423171,-0.7982142802745312,0,0,0,1
-2.6138500746626594,2.88215921576829,-0.11712542027453123,0,0,0,1
-0.6832670746626591,2.4563386157682903,-0.4005062802745312,0,0,0,1
2.471340725337341,-1.34889658423171,-1.6638320802745312,0,0,0,1
2.471340725337341,-1.34889658423171,-1.6638320802745312,0,0,0,1
2.471340725337341,-1.34889658423171,-1.6638320802745312,0,0,0,1
-3.119741874662659,1.87373901576829,0.40088435972546876,0,0,0,1
0.05824138333734089,-0.6205697442317099,-0.3656291102745312,0,0,0,1
0.05824138333734089,-0.6205697442317099,-0.3656291102745312,0,0,0,1
2.7858128253373406,-2.8409656842317097,-1.3469544802745312,0,0,0,1
2.7858128253373406,-2.8409656842317097,-1.3469544802745312,0,0,0,1
-0.5677218246626591,0.37026648576829013,0.29270806972546876,0,0,0,1
-1.227261074662659,1.57773821576829,1.076167819725469,0,0,0,1
-1.227261074662659,1.57773821576829,1.076167819725469,0,0,0,1
-0.0513901546626591,0.28018959576829017,0.20551665972546876,0,0,0,1
1.296144025337341,-1.21540898423171,-0.5960295802745311,0,0,0,1
0.6713700253373409,-0.6210323842317098,-0.5459995802745312,0,0,0,1
0.6713700253373409,-0.6210323842317098,-0.5459995802745312,0,0,0,1
-1.764763774662659,0.6312452757682901,-0.7341821802745312,0,0,0,1
-1.764763774662659,0.6312452757682901,-0.7341821802745312,0,0,0,1
-1.118655674662659,0.9317220157682902,-0.024272354274531227,0,0,0,1
-0.04621170466265911,0.05244263276829013,-0.16425362027453122,0,0,0,1
-0.04621170466265911,0.05244263276829013,-0.16425362027453122,0,0,0,1
0.8351512253373409,-1.16408298423171,-0.41402628027453126,0,0,0,1
1.920851225337341,-1.79156708423171,-0.37025288027453124,0,0,0,1
1.661428925337341,-1.3457596842317099,-0.17480198027453123,0,0,0,1
-1.852057874662659,1.23423781576829,0.26485785972546877,0,0,0,1
-1.852057874662659,1.23423781576829,0.26485785972546877,0,0,0,1
-1.542298774662659,1.55899021576829,0.48536583972546876,0,0,0,1
-0.7346958746626591,1.18204181576829,0.019407717725468773,0,0,0,1
1.314322925337341,0.1651185957682901,-1.2581890802745312,0,0,0,1
1.314322925337341,0.1651185957682901,-1.2581890802745312,0,0,0,1
1.034296525337341,0.22596876576829011,-1.1713998802745311,0,0,0,1
1.034296525337341,0.22596876576829011,-1.1713998802745311,0,0,0,1
-2.509270274662659,-0.6051386442317098,-0.06077257027453122,0,0,0,1
-1.354516474662659,-0.6516604842317099,0.9235188697254688,0,0,0,1
-0.13186691466265912,-0.29364110423170986,0.8563283197254689,0,0,0,1
0.6045203253373409,-0.2223951942317099,0.5943076197254689,0,0,0,1
0.6045203253373409,-0.2223951942317099,0.5943076197254689,0,0,0,1
0.05731727333734089,-0.6935624842317099,-0.5582266202745312,0,0,0,1
-0.8761572746626591,1.36293641576829,-0.7236466802745312,0,0,0,1
-0.8761572746626591,1.36293641576829,-0.7236466802745312,0,0,0,1
0.3476605553373409,1.0229304157682901,-0.6163945802745312,0,0,0,1
0.3476605553373409,1.0229304157682901,-0.6163945802745312,0,0,0,1
1.742291925337341,0.16153925576829012,0.11996313972546876,0,0,0,1
0.5697913253373409,0.24745375576829012,0.28201999972546876,0,0,0,1
0.5697913253373409,0.24745375576829012,0.28201999972546876,0,0,0,1
-0.8526644746626592,0.13834922576829012,0.5836932197254688,0,0,0,1
-0.8526644746626592,0.13834922576829012,0.5836932197254688,0,0,0,1
-1.274074974662659,-0.28285084423170986,0.6917526197254689,0,0,0,1
0.5256037853373409,0.1381005057682901,-0.10789898027453124,0,0,0,1
1.408759625337341,-0.32402338423170984,-0.08025113027453123,0,0,0,1
1.408759625337341,-0.32402338423170984,-0.08025113027453123,0,0,0,1
0.9587521753373409,-0.4174814042317099,-0.45180825027453125,0,0,0,1
0.2115092453373409,0.14965622576829013,-0.5520242802745312,0,0,0,1
-0.6119761346626591,0.18954983576829013,-0.13348332027453122,0,0,0,1
-0.6119761346626591,0.18954983576829013,-0.13348332027453122,0,0,0,1
-1.309463974662659,0.30834721576829016,0.06004461472546877,0,0,0,1
-1.309463974662659,0.30834721576829016,0.06004461472546877,0,0,0,1
-1.037004974662659,0.12045847976829013,0.27634641972546875,0,0,0,1
-0.0458512146626591,-0.39022018423170984,0.35976901972546876,0,0,0,1
0.8738560853373409,-0.42673264423170987,0.36013141972546875,0,0,0,1
1.308480725337341,0.44399924576829014,0.033126322725468775,0,0,0,1
1.308480725337341,0.44399924576829014,0.033126322725468775,0,0,0,1
-0.7622933246626591,0.6484831157682901,-0.29626826027453124,0,0,0,1
0.038957135337340895,0.03340679776829013,-0.3768147502745312,0,0,0,1
0.038957135337340895,0.03340679776829013,-0.3768147502745312,0,0,0,1
0.038957135337340895,0.03340679776829013,-0.3768147502745312,0,0,0,1
1.039049625337341,0.6069469657682901,-0.07303050027453123,0,0,0,1
1.039049625337341,0.6069469657682901,-0.07303050027453123,0,0,0,1
-0.9497942746626591,-0.6184143242317098,0.18616136972546876,0,0,0,1
-1.463306874662659,0.10062740576829013,0.2781523197254688,0,0,0,1
-0.6175150746626591,0.42076476576829014,0.23742916972546876,0,0,0,1
-0.6175150746626591,0.42076476576829014,0.23742916972546876,0,0,0,1
0.6349196553373408,0.24049122576829013,0.26483246972546876,0,0,0,1
1.388046725337341,0.02797425176829013,-0.4108652202745312,0,0,0,1
0.9444604253373409,0.20882854576829013,-0.5368430802745312,0,0,0,1
0.9444604253373409,0.20882854576829013,-0.5368430802745312,0,0,0,1
-1.651909374662659,0.11188792576829013,-0.20031312027453124,0,0,0,1
-0.9366221246626592,0.5431785757682901,-0.11442104027453123,0,0,0,1
0.7425933253373409,0.7285038157682902,-0.14302293027453122,0,0,0,1
1.124386325337341,0.39761187576829016,-0.10731092027453124,0,0,0,1
0.06312896533734089,-0.5910896442317098,-0.18155936027453123,0,0,0,1
-0.4210743746626591,-1.3224822842317099,0.09014567572546878,0,0,0,1
-0.2844042746626591,-1.06704828423171,0.32972171972546876,0,0,0,1
-0.12099026066265911,0.46454926576829014,0.49838265972546875,0,0,0,1
0.11232520533734089,1.64234421576829,0.5618102797254688,0,0,0,1
0.025886075337340896,-0.09993638423170988,-0.07882836627453123,0,0,0,1
0.025886075337340896,-0.09993638423170988,-0.07882836627453123,0,0,0,1
-0.9719767446626592,-1.03477508423171,-0.6973928802745312,0,0,0,1
-1.113553474662659,-0.7011148142317098,-0.7347531802745312,0,0,0,1
0.4945016053373409,0.24114090576829011,-0.37427142027453125,0,0,0,1
0.5057006253373408,-0.005152356231709871,-0.09422353027453123,0,0,0,1
0.3142352253373409,0.29472811576829017,0.12887998972546877,0,0,0,1
0.3142352253373409,0.29472811576829017,0.12887998972546877,0,0,0,1
0.3515610853373409,0.29978861576829013,0.4053196597254688,0,0,0,1
-1.242008674662659,-0.29425541423170987,-0.008142741074531225,0,0,0,1
0.6030764753373409,-0.11622028423170987,-0.16190127027453122,0,0,0,1
0.6030764753373409,-0.11622028423170987,-0.16190127027453122,0,0,0,1
0.1620888853373409,0.34666873576829016,-0.12944213027453122,0,0,0,1
0.4249673053373409,-0.29606802423170986,-0.14070383027453123,0,0,0,1
-0.25529239466265913,-0.1623630342317099,-0.23533788027453123,0,0,0,1
-0.8467812346626591,-0.24836696423170987,-0.03304484627453123,0,0,0,1
-0.30352447466265914,-0.6564880442317098,0.4018195597254688,0,0,0,1
0.4880032653373409,0.9516915157682901,0.5456158197254688,0,0,0,1
0.4880032653373409,0.9516915157682901,0.5456158197254688,0,0,0,1
1.113935925337341,-0.05371531423170987,0.11217781972546877,0,0,0,1
-0.7125716046626591,-0.002451863231709871,-0.9608569502745312,0,0,0,1
-0.7125716046626591,-0.002451863231709871,-0.9608569502745312,0,0,0,1
-0.41401432466265914,0.22364266576829012,-0.7461924802745312,0,0,0,1
-0.20194767466265912,-0.0005711692317098716,-0.5074524002745312,0,0,0,1
-1.104219874662659,0.12579661976829012,-0.4589064402745312,0,0,0,1
0.9431929753373409,-0.2694877842317099,0.30839159972546876,0,0,0,1
0.9431929753373409,-0.2694877842317099,0.30839159972546876,0,0,0,1
0.9431929753373409,-0.2694877842317099,0.30839159972546876,0,0,0,1
0.2624974453373409,1.12009141576829,0.22506394972546878,0,0,0,1
-0.3161215746626591,-0.9445541342317099,-0.05860224527453122,0,0,0,1
-0.3160109346626591,1.67213081576829,-0.24728730027453122,0,0,0,1
-0.3160109346626591,1.67213081576829,-0.24728730027453122,0,0,0,1
-0.3160109346626591,1.67213081576829,-0.24728730027453122,0,0,0,1
-0.3160109346626591,1.67213081576829,-0.24728730027453122,0,0,0,1
-0.18182228466265912,1.84421791576829,-0.23095146027453123,0,0,0,1
0.6100735853373409,-2.4167800842317098,-0.48291853027453124,0,0,0,1
2.0715070253373407,-1.31832528423171,0.006733862725468775,0,0,0,1
2.0715070253373407,-1.31832528423171,0.006733862725468775,0,0,0,1
1.520583625337341,0.7690834157682901,0.36819257972546876,0,0,0,1
-0.20110748466265913,0.44180377576829016,1.0671138197254688,0,0,0,1
-2.9317397746626592,-0.9142735842317099,-0.10841599027453123,0,0,0,1
-2.9317397746626592,-0.9142735842317099,-0.10841599027453123,0,0,0,1
-1.748265774662659,-0.8853233842317099,-0.3760648102745312,0,0,0,1
0.16923667533734088,-0.25367118423170987,-0.4652152402745312,0,0,0,1
1.211908825337341,0.3987069657682901,-0.9187102802745312,0,0,0,1
2.184203725337341,0.5245980757682901,-0.6574667802745312,0,0,0,1
2.184203725337341,0.5245980757682901,-0.6574667802745312,0,0,0,1
2.184203725337341,0.5245980757682901,-0.6574667802745312,0,0,0,1
0.9886470253373408,1.01739161576829,0.3893084797254688,0,0,0,1
-2.015323574662659,0.39759899576829016,0.5974371697254688,0,0,0,1
-0.9288468246626591,-1.17636638423171,1.0176753197254689,0,0,0,1
-0.30649422466265913,-1.2983415842317099,0.7544420597254688,0,0,0,1
0.2798829253373409,-0.2532474242317099,0.6392652697254688,0,0,0,1
1.255328725337341,0.39857806576829014,0.27805311972546876,0,0,0,1
-0.7036967146626592,-0.24681563423170988,-0.9657572802745312,0,0,0,1
-0.7036967146626592,-0.24681563423170988,-0.9657572802745312,0,0,0,1
-0.7036967146626592,-0.24681563423170988,-0.9657572802745312,0,0,0,1
0.3113284253373409,-0.7427240442317099,-0.7367382402745312,0,0,0,1
-0.0787215046626591,1.3580240157682901,-0.4055127202745312,0,0,0,1
-0.0787215046626591,1.3580240157682901,-0.4055127202745312,0,0,0,1
0.9136147653373409,-0.6876281842317099,0.5369007897254688,0,0,0,1
-0.3382649246626591,-0.9735332542317099,0.6532999197254689,0,0,0,1
-0.09045551466265911,0.07996777076829013,0.49577327972546875,0,0,0,1
-0.09045551466265911,0.07996777076829013,0.49577327972546875,0,0,0,1
-0.09045551466265911,0.07996777076829013,0.49577327972546875,0,0,0,1
0.017579571337340897,0.6556461157682901,-0.5980869802745312,0,0,0,1
0.2216830453373409,0.32107253576829015,-0.8801644202745311,0,0,0,1
0.7976060253373409,-0.16113641423170988,-0.9447677402745311,0,0,0,1
0.7976060253373409,-0.16113641423170988,-0.9447677402745311,0,0,0,1
-0.6612381746626591,0.5098845157682902,-0.6505930802745312,0,0,0,1
-0.6612381746626591,0.5098845157682902,-0.6505930802745312,0,0,0,1
0.5776572253373409,-0.5104797342317099,0.46192189972546877,0,0,0,1
-0.09677646966265911,-0.29074741423170986,0.8242454197254688,0,0,0,1
0.4040150753373409,-0.8876561842317099,0.8039709197254689,0,0,0,1
0.3071808953373409,-1.15978498423171,0.13304408972546877,0,0,0,1
-0.6845240446626591,0.32242833576829016,-0.4854122802745312,0,0,0,1
-0.14090774466265912,0.6489051757682901,-0.5859915302745312,0,0,0,1
-0.14090774466265912,0.6489051757682901,-0.5859915302745312,0,0,0,1
0.2882208953373409,0.8000543157682901,-0.5869089802745312,0,0,0,1
1.153581125337341,0.6366349157682901,-0.09998634627453123,0,0,0,1
1.024533725337341,0.6893444157682902,0.16658725972546878,0,0,0,1
0.08302070533734089,1.19976561576829,0.5008939197254688,0,0,0,1
0.08302070533734089,1.19976561576829,0.5008939197254688,0,0,0,1
-1.100758074662659,1.20428301576829,0.3991055797254688,0,0,0,1
-1.924765574662659,-0.06315417423170987,0.062122074725468775,0,0,0,1
-1.306004074662659,-0.7788559842317099,-0.5197429802745311,0,0,0,1
0.09701968533734089,-1.3298353842317099,-0.8929870402745311,0,0,0,1
1.319623525337341,-1.49411058423171,-1.238349680274531,0,0,0,1
1.432595725337341,-1.21416778423171,-0.8621002802745312,0,0,0,1
0.4945187753373409,-0.5897072842317098,-0.16930452027453122,0,0,0,1
-0.6090760046626591,1.03316051576829,1.0998766197254688,0,0,0,1
-0.6090760046626591,1.03316051576829,1.0998766197254688,0,0,0,1
-0.4522423546626591,0.8085895157682902,1.0497884197254688,0,0,0,1
-0.4889750346626591,-0.1427064342317099,0.46569201972546875,0,0,0,1
-0.9966740446626591,-0.7723235842317099,0.2769031797254688,0,0,0,1
-1.649931374662659,-0.5629902842317098,-0.10394362027453123,0,0,0,1
-1.649931374662659,-0.5629902842317098,-0.10394362027453123,0,0,0,1
0.6128668953373408,1.00311341576829,-0.5264348102745312,0,0,0,1
0.6141762853373409,1.00568241576829,-0.5146818502745312,0,0,0,1
1.722567125337341,0.3026437357682901,-0.6643717802745311,0,0,0,1
0.7042727653373408,-0.42436854423170983,-0.4295018002745312,0,0,0,1
-0.5946059046626591,-0.5075322842317098,0.19296433972546878,0,0,0,1
-0.5946059046626591,-0.5075322842317098,0.19296433972546878,0,0,0,1
-0.5946059046626591,-0.5075322842317098,0.19296433972546878,0,0,0,1
-0.5946059046626591,-0.5075322842317098,0.19296433972546878,0,0,0,1
-0.5131153746626591,0.1681990057682901,1.1129609197254688,0,0,0,1
0.6722169253373409,0.24571858576829012,0.14529188972546878,0,0,0,1
2.6705451253373407,-0.9331425242317098,-1.2859355802745311,0,0,0,1
1.221204325337341,-0.7926544342317099,-1.5517523802745312,0,0,0,1
-1.609196174662659,0.5105094157682901,0.5976983597254688,0,0,0,1
-1.609196174662659,0.5105094157682901,0.5976983597254688,0,0,0,1
-0.7309918246626591,-0.34606133423170987,0.8350663197254689,0,0,0,1
0.6378903253373409,-1.21874868423171,1.0659048197254688,0,0,0,1
1.468557825337341,-0.36324481423170984,1.024106219725469,0,0,0,1
0.8457761253373409,0.6552618157682901,0.5233639197254688,0,0,0,1
0.05643035533734089,1.28327241576829,-0.049605877274531224,0,0,0,1
0.10645629533734088,0.7540173757682902,-0.5883245802745312,0,0,0,1
-0.6674399246626591,-0.35225726423170983,-1.085796980274531,0,0,0,1
-0.6146282746626591,-0.6654624842317098,-0.8558067402745312,0,0,0,1
-0.6146282746626591,-0.6654624842317098,-0.8558067402745312,0,0,0,1
-0.6146282746626591,-0.6654624842317098,-0.8558067402745312,0,0,0,1
0.11890269933734089,-0.33345318423170983,0.8412751197254689,0,0,0,1
0.11890269933734089,-0.33345318423170983,0.8412751197254689,0,0,0,1
0.3135667053373409,-0.11155054423170987,1.2186652197254688,0,0,0,1
0.8494830253373409,0.06472109976829013,1.0449260197254688,0,0,0,1
0.0625014453373409,-1.3021985842317099,-0.44070598027453123,0,0,0,1
0.3256278253373409,-0.28308318423170986,-0.48986772027453124,0,0,0,1
0.008509175337340896,1.18825541576829,-0.6120768802745312,0,0,0,1
0.008509175337340896,1.18825541576829,-0.6120768802745312,0,0,0,1
-0.0625719846626591,-0.01544169523170987,-0.4610469802745312,0,0,0,1
-0.0625719846626591,-0.01544169523170987,-0.4610469802745312,0,0,0,1
0.3655476753373409,-0.27662418423170987,0.3183962997254688,0,0,0,1
0.3655476753373409,-0.27662418423170987,0.3183962997254688,0,0,0,1
1.003900025337341,-0.5348378842317099,0.3209541197254688,0,0,0,1
0.6783719253373409,-1.0114916842317099,0.21096899972546876,0,0,0,1
0.2697367853373409,-1.1778298842317099,0.21405121972546878,0,0,0,1
-0.1321759046626591,-0.7853832842317099,0.18436660972546878,0,0,0,1
-0.7003674346626592,0.19935374576829012,-0.15852794027453124,0,0,0,1
-0.7003674346626592,0.19935374576829012,-0.15852794027453124,0,0,0,1
-0.9626154746626591,0.17241049576829012,-0.39325091027453124,0,0,0,1
-0.9626154746626591,0.17241049576829012,-0.39325091027453124,0,0,0,1
-0.021236880662659104,0.7437511157682901,0.3136733497254688,0,0,0,1
-0.021236880662659104,0.7437511157682901,0.3136733497254688,0,0,0,1
0.6441083253373409,1.00965771576829,0.48514869972546876,0,0,0,1
0.9996047253373409,0.33583081576829016,0.32787431972546877,0,0,0,1
0.7047906253373409,-0.37378458423170985,0.37551077972546876,0,0,0,1
-0.1341395246626591,-0.42722188423170987,0.08303567972546877,0,0,0,1
-0.6477465746626591,-0.8950960442317099,0.09325596572546876,0,0,0,1
-0.6477465746626591,-0.8950960442317099,0.09325596572546876,0,0,0,1
0.002462880037340894,-0.41366508423170983,-0.026270838274531225,0,0,0,1
0.002462880037340894,-0.41366508423170983,-0.026270838274531225,0,0,0,1
0.002462880037340894,-0.41366508423170983,-0.026270838274531225,0,0,0,1
0.5198722253373409,-0.6761322842317099,-0.16189805027453122,0,0,0,1
0.5016389253373409,-1.1594982842317099,0.2436672197254688,0,0,0,1
-0.17982719466265912,-1.11654508423171,0.30063708972546876,0,0,0,1
-0.1399178346626591,0.5670104157682901,0.6777650197254689,0,0,0,1
-0.3049912246626591,0.9480851157682901,0.07752421372546878,0,0,0,1
-0.3049912246626591,0.9480851157682901,0.07752421372546878,0,0,0,1
-0.5497326746626591,0.46332849576829016,-0.20891640027453123,0,0,0,1
-0.2948765546626591,-0.27939747423170985,-0.8009970502745312,0,0,0,1
0.017007367337340894,-1.03771268423171,-0.9869275402745312,0,0,0,1
-0.17564437466265911,-1.23445468423171,-0.9408000402745311,0,0,0,1
-0.3224463346626591,-0.8101623442317099,-0.6298487502745311,0,0,0,1
-0.3224463346626591,-0.8101623442317099,-0.6298487502745311,0,0,0,1
0.1226658953373409,-0.12361038423170988,0.7999628197254688,0,0,0,1
0.1226658953373409,-0.12361038423170988,0.7999628197254688,0,0,0,1
-0.07662628466265911,-0.7496497442317098,0.7831122597254688,0,0,0,1
-0.07662628466265911,-0.7496497442317098,0.7831122597254688,0,0,0,1
0.020954625337340896,-0.7910270842317099,0.30568351972546876,0,0,0,1
-0.2779545746626591,1.07155601576829,-0.19535026027453123,0,0,0,1
-0.2779545746626591,1.07155601576829,-0.19535026027453123,0,0,0,1
0.9211573753373409,0.14355059576829013,-0.49248318027453125,0,0,0,1
0.9211573753373409,0.14355059576829013,-0.49248318027453125,0,0,0,1
-0.5853514746626591,-0.6997131842317098,0.09537079972546877,0,0,0,1
-0.3478798746626591,-0.7341961842317098,0.5764198197254689,0,0,0,1
-0.3478798746626591,-0.7341961842317098,0.5764198197254689,0,0,0,1
-0.3296942546626591,-0.04389242423170987,0.5808739197254689,0,0,0,1
0.3898396653373409,-0.08763394923170988,0.7428172197254689,0,0,0,1
1.385458525337341,-0.6491017142317098,0.6234321197254689,0,0,0,1
-0.7163300346626591,0.7497120657682902,-0.26989284027453125,0,0,0,1
-0.7163300346626591,0.7497120657682902,-0.26989284027453125,0,0,0,1
-0.7163300346626591,0.7497120657682902,-0.26989284027453125,0,0,0,1
-0.6035475746626591,0.7882289157682901,-0.37174043027453124,0,0,0,1
1.300412725337341,-0.38083480423170984,-0.13905874027453122,0,0,0,1
1.572790625337341,-0.29503078423170986,-0.07359681027453123,0,0,0,1
1.572790625337341,-0.29503078423170986,-0.07359681027453123,0,0,0,1
1.572790625337341,-0.29503078423170986,-0.07359681027453123,0,0,0,1
-0.3345846946626591,0.1879611157682901,0.23907240972546878,0,0,0,1
-1.063678274662659,-0.07284055423170988,0.5006309197254688,0,0,0,1
-1.657502674662659,0.04961122876829013,0.43329855972546877,0,0,0,1
-1.657502674662659,0.04961122876829013,0.43329855972546877,0,0,0,1
1.484090325337341,-0.46189634423170983,0.0006640837254687755,0,0,0,1
2.5808654253373406,-0.5617691842317099,-0.24904898027453123,0,0,0,1
-0.5661310746626591,0.7597495157682902,-0.22660819027453122,0,0,0,1
-0.5661310746626591,0.7597495157682902,-0.22660819027453122,0,0,0,1
-1.537761174662659,0.7763534157682901,0.25940194972546876,0,0,0,1
-0.7972941246626591,0.39841033576829016,0.027185169725468774,0,0,0,1
-0.7972941246626591,0.39841033576829016,0.027185169725468774,0,0,0,1
1.129744025337341,-0.44716868423170986,-0.13282773027453124,0,0,0,1
2.624113625337341,-1.05025768423171,-0.045062930274531225,0,0,0,1
2.025440725337341,-0.6421268842317098,-0.05743286027453122,0,0,0,1
2.025440725337341,-0.6421268842317098,-0.05743286027453122,0,0,0,1
-1.777656074662659,0.15053154576829011,0.4336990697254688,0,0,0,1
2.7497001253373408,-0.21295372423170988,-0.2735103102745312,0,0,0,1
0.18372489533734088,0.4092648857682901,-0.23046371027453122,0,0,0,1
0.18372489533734088,0.4092648857682901,-0.23046371027453122,0,0,0,1
