acc_x,acc_y,acc_z,gyro_x,gyro_y,gyro_z,label
-0.1329140546626591,1.34402181576829,0.7280541197254689,0,0,0,1
-0.1329140546626591,1.34402181576829,0.7280541197254689,0,0,0,1
-0.1329140546626591,1.34402181576829,0.7280541197254689,0,0,0,1
0.3292527253373409,-0.5091794842317099,0.11864360972546878,0,0,0,1
0.3292527253373409,-0.5091794842317099,0.11864360972546878,0,0,0,1
-0.28533314466265913,-1.19244768423171,-0.8327988802745312,0,0,0,1
-0.28533314466265913,-1.19244768423171,-0.8327988802745312,0,0,0,1
-0.28533314466265913,-1.19244768423171,-0.8327988802745312,0,0,0,1
-0.28533314466265913,-1.19244768423171,-0.8327988802745312,0,0,0,1
1.092815925337341,-2.01593728423171,0.48449906972546875,0,0,0,1
1.464327325337341,-1.59074928423171,-0.24852780027453122,0,0,0,1
1.298373725337341,-1.36852348423171,0.9229100597254688,0,0,0,1
0.05033065533734089,-0.36753168423170984,0.9738291197254688,0,0,0,1
0.05033065533734089,-0.36753168423170984,0.9738291197254688,0,0,0,1
-1.185799074662659,-1.4204668842317099,0.46791156972546877,0,0,0,1
-1.528321774662659,1.70020961576829,0.3749496597254688,0,0,0,1
0.3410029553373409,2.00953131576829,-0.09847859027453124,0,0,0,1
4.216988125337341,-0.9876369842317099,-1.3539814802745311,0,0,0,1
2.180692225337341,-0.9882156842317098,-1.9226033802745313,0,0,0,1
2.180692225337341,-0.9882156842317098,-1.9226033802745313,0,0,0,1
0.9507460753373409,-1.07612158423171,-0.3991902202745312,0,0,0,1
1.345441325337341,-0.21158383423170987,1.4696459197254688,0,0,0,1
2.282836425337341,0.1590182357682901,0.013028828725468775,0,0,0,1
2.282836425337341,0.1590182357682901,0.013028828725468775,0,0,0,1
1.804320825337341,-1.65482908423171,-1.4144344802745312,0,0,0,1
-1.189562274662659,-1.13556738423171,-0.9936969802745311,0,0,0,1
-0.1776995546626591,-0.1904037442317099,1.4596390197254687,0,0,0,1
2.0555892253373407,-0.7401266542317099,1.6977058197254689,0,0,0,1
1.618758725337341,-1.3419558842317099,1.2542977197254688,0,0,0,1
1.618758725337341,-1.3419558842317099,1.2542977197254688,0,0,0,1
1.618758725337341,-1.3419558842317099,1.2542977197254688,0,0,0,1
-0.6193079746626591,-1.62405608423171,-0.7564138502745311,0,0,0,1
-2.2867388746626593,-0.7757249242317098,-2.0233337802745313,0,0,0,1
-0.1469836046626591,1.06229011576829,-0.35327760027453126,0,0,0,1
-0.9522785746626591,1.67236411576829,-0.06178096027453122,0,0,0,1
1.509019425337341,-0.44752023423170983,0.30936893972546875,0,0,0,1
0.11810161533734088,-0.8265002842317098,-0.18528476027453122,0,0,0,1
0.11810161533734088,-0.8265002842317098,-0.18528476027453122,0,0,0,1
-2.478244774662659,-0.052531939231709866,-0.6159732802745311,0,0,0,1
-2.8313942746626592,-0.18299375423170988,-0.6465378102745312,0,0,0,1
0.18893767533734088,1.81669811576829,-0.5335464802745312,0,0,0,1
2.406496525337341,-0.29107300423170984,-0.34368852027453123,0,0,0,1
-1.454328074662659,-0.2147297042317099,-0.6199113402745312,0,0,0,1
-1.145030474662659,1.60409371576829,0.16648479972546876,0,0,0,1
-1.145030474662659,1.60409371576829,0.16648479972546876,0,0,0,1
3.3705354253373407,0.5508022157682901,-0.6005702302745312,0,0,0,1
-2.664411074662659,0.45836531576829015,0.03443106972546878,0,0,0,1
-2.664411074662659,0.45836531576829015,0.03443106972546878,0,0,0,1
-0.30799147466265914,0.27373267576829013,0.8404847197254688,0,0,0,1
1.696015825337341,-0.3420480342317099,0.7271287197254688,0,0,0,1
1.258349925337341,0.9406034557682902,0.3227800997254688,0,0,0,1
1.258349925337341,0.9406034557682902,0.3227800997254688,0,0,0,1
-1.134407474662659,1.2361535157682901,0.7165639197254688,0,0,0,1
-1.068339774662659,0.6920247157682902,0.9568862197254688,0,0,0,1
1.334638125337341,0.6101096157682901,0.6595810197254688,0,0,0,1
1.334638125337341,0.6101096157682901,0.6595810197254688,0,0,0,1
1.334638125337341,0.6101096157682901,0.6595810197254688,0,0,0,1
0.7443671253373408,1.6605210157682901,0.15104516972546878,0,0,0,1
0.5778165253373408,1.03130561576829,-1.4867773802745312,0,0,0,1
-1.672078574662659,-0.14762894423170989,0.7031237797254688,0,0,0,1
1.330022325337341,1.39864441576829,1.929920019725469,0,0,0,1
-1.672078574662659,-0.14762894423170989,0.7031237797254688,0,0,0,1
1.433225125337341,1.88845461576829,1.2180914197254689,0,0,0,1
1.433225125337341,1.88845461576829,1.2180914197254689,0,0,0,1
-0.3268122546626591,-0.30840961423170987,-1.5455417802745313,0,0,0,1
-0.5296444746626591,-0.27648596423170985,-2.7493875802745316,0,0,0,1
0.3843798753373409,0.24642236576829013,-1.4196904802745312,0,0,0,1
0.3898139253373409,-0.49374858423170986,0.47533627972546877,0,0,0,1
0.12787582533734088,0.2002553857682901,1.4737942197254688,0,0,0,1
0.12787582533734088,0.2002553857682901,1.4737942197254688,0,0,0,1
0.9356608553373409,-0.5023131142317099,-0.16108480027453123,0,0,0,1
0.9356608553373409,-0.5023131142317099,-0.16108480027453123,0,0,0,1
0.9075055253373409,0.8982692157682901,-1.8326723802745313,0,0,0,1
-2.951611474662659,1.20303151576829,-0.6242405502745312,0,0,0,1
-2.951611474662659,1.20303151576829,-0.6242405502745312,0,0,0,1
-2.951611474662659,1.20303151576829,-0.6242405502745312,0,0,0,1
-1.123676774662659,1.06226181576829,0.7249923597254688,0,0,0,1
2.665793925337341,-0.04119805623170987,1.2759041197254688,0,0,0,1
2.1511016253373407,-0.04381529623170987,0.7009353197254689,0,0,0,1
-2.0189666746626593,1.25106591576829,0.4110890197254688,0,0,0,1
-3.8325442746626592,2.1731131157682904,-0.06016698627453122,0,0,0,1
-3.8325442746626592,2.1731131157682904,-0.06016698627453122,0,0,0,1
-3.3917464746626593,1.55982731576829,-0.7577573402745311,0,0,0,1
-1.787958574662659,0.12959398576829012,-1.494804880274531,0,0,0,1
-1.787958574662659,0.12959398576829012,-1.494804880274531,0,0,0,1
1.231177825337341,-0.47018490423170983,-1.4383544802745312,0,0,0,1
3.5751214253373407,-1.13522698423171,-0.8327675202745312,0,0,0,1
3.5751214253373407,-1.13522698423171,-0.8327675202745312,0,0,0,1
0.5717778253373409,-0.9182600242317098,0.21484705972546878,0,0,0,1
-2.2917794746626594,1.1008356157682901,1.0138167197254688,0,0,0,1
-2.2917794746626594,1.1008356157682901,1.0138167197254688,0,0,0,1
-2.2917794746626594,1.1008356157682901,1.0138167197254688,0,0,0,1
-1.567415674662659,-0.08600429823170987,-0.7000248802745311,0,0,0,1
-1.567415674662659,-0.08600429823170987,-0.7000248802745311,0,0,0,1
1.145546425337341,-0.9653081842317098,-1.2496119802745311,0,0,0,1
1.145546425337341,-0.9653081842317098,-1.2496119802745311,0,0,0,1
2.684589925337341,-0.6525898842317098,-1.4342443802745313,0,0,0,1
3.323597425337341,0.08282257976829013,-1.1417138802745312,0,0,0,1
-0.6771902746626591,0.5589986657682902,0.6511907197254688,0,0,0,1
-2.175077374662659,0.03274600576829013,1.2811510197254687,0,0,0,1
-1.501408074662659,0.5076355557682901,1.743451419725469,0,0,0,1
-1.501408074662659,0.5076355557682901,1.743451419725469,0,0,0,1
0.1901011653373409,1.27525691576829,1.4184912197254689,0,0,0,1
-0.6267494746626591,-1.0964894842317099,-1.5791431802745313,0,0,0,1
-0.6267494746626591,-1.0964894842317099,-1.5791431802745313,0,0,0,1
-2.388071074662659,0.2407822957682901,-0.9991148802745312,0,0,0,1
0.5159468853373409,0.7434951157682902,1.280367919725469,0,0,0,1
0.5159468853373409,0.7434951157682902,1.280367919725469,0,0,0,1
0.5159468853373409,0.7434951157682902,1.280367919725469,0,0,0,1
0.8417563553373408,0.4708969157682901,1.4180077197254688,0,0,0,1
2.018794525337341,0.6498225557682902,0.5333038197254688,0,0,0,1
2.018794525337341,0.6498225557682902,0.5333038197254688,0,0,0,1
1.518909925337341,1.40702821576829,-0.9318987402745311,0,0,0,1
1.518909925337341,1.40702821576829,-0.9318987402745311,0,0,0,1
-0.1515850846626591,1.35855971576829,-2.5691786802745313,0,0,0,1
-0.35495707466265913,1.34643091576829,-2.2096312802745315,0,0,0,1
-0.2538924046626591,1.0567611157682901,-0.7661133102745312,0,0,0,1
-0.2538924046626591,1.0567611157682901,-0.7661133102745312,0,0,0,1
-0.8804669246626591,-0.09373722423170987,1.0404695197254687,0,0,0,1
-0.9451126746626591,-1.17877008423171,1.666392819725469,0,0,0,1
1.804853925337341,-1.35184758423171,1.367252319725469,0,0,0,1
-0.9200711046626591,-0.1465815142317099,-0.5368901802745312,0,0,0,1
0.3107953253373409,-0.30562321423170985,-2.2453426802745313,0,0,0,1
0.3107953253373409,-0.30562321423170985,-2.2453426802745313,0,0,0,1
0.3107953253373409,-0.30562321423170985,-2.2453426802745313,0,0,0,1
0.3107953253373409,-0.30562321423170985,-2.2453426802745313,0,0,0,1
0.3107953253373409,-0.30562321423170985,-2.2453426802745313,0,0,0,1
0.031094090337340896,-0.2101702242317099,0.8030124597254689,0,0,0,1
0.5784325753373409,-0.3633406242317099,1.5512578197254687,0,0,0,1
0.5784325753373409,-0.3633406242317099,1.5512578197254687,0,0,0,1
0.5784325753373409,-0.3633406242317099,1.5512578197254687,0,0,0,1
-0.9408039746626591,0.5758785157682902,1.8872114197254688,0,0,0,1
-2.790224574662659,1.21429161576829,1.4970927197254689,0,0,0,1
3.9308277253373407,1.57711221576829,-0.6837536402745312,0,0,0,1
2.4700398253373406,-0.17969877423170988,-1.803429280274531,0,0,0,1
2.4700398253373406,-0.17969877423170988,-1.803429280274531,0,0,0,1
-1.375985574662659,0.6089250157682902,-1.1471017802745311,0,0,0,1
-1.375985574662659,0.6089250157682902,-1.1471017802745311,0,0,0,1
2.5024362253373407,1.32462791576829,0.34338566972546875,0,0,0,1
2.314551825337341,-0.15594060423170988,0.25391121972546876,0,0,0,1
2.314551825337341,-0.15594060423170988,0.25391121972546876,0,0,0,1
-1.617405374662659,0.5019215557682901,-0.3130075102745312,0,0,0,1
2.209386325337341,-2.4859513842317096,0.3693946197254688,0,0,0,1
2.209386325337341,-2.4859513842317096,0.3693946197254688,0,0,0,1
-0.3543200346626591,-0.7857538242317098,0.026172606725468773,0,0,0,1
1.264418125337341,0.3081098957682901,1.0664449197254688,0,0,0,1
2.886622925337341,0.5413928857682901,0.2698962397254688,0,0,0,1
2.886622925337341,0.5413928857682901,0.2698962397254688,0,0,0,1
2.232101025337341,0.12765510576829012,-0.5770973302745311,0,0,0,1
1.666236425337341,-1.74482728423171,-1.032371280274531,0,0,0,1
1.666236425337341,-1.74482728423171,-1.032371280274531,0,0,0,1
1.666236425337341,-1.74482728423171,-1.032371280274531,0,0,0,1
-1.646532074662659,-0.061044914231709865,-1.2960361802745313,0,0,0,1
1.004045025337341,-1.16249108423171,1.2964882197254688,0,0,0,1
2.5754017253373407,2.20092441576829,-1.1447418802745313,0,0,0,1
2.5754017253373407,2.20092441576829,-1.1447418802745313,0,0,0,1
3.987783925337341,0.8444320757682902,-0.8519911802745311,0,0,0,1
-1.320634374662659,0.9536228157682901,-1.266692680274531,0,0,0,1
-2.9739355746626592,2.80006241576829,-0.3086229802745312,0,0,0,1
4.1678157253373405,-1.44229528423171,0.2609588797254688,0,0,0,1
1.814268625337341,-0.6375647842317098,0.8317544197254688,0,0,0,1
1.814268625337341,-0.6375647842317098,0.8317544197254688,0,0,0,1
-0.8285479346626591,1.17397001576829,0.9041902697254688,0,0,0,1
-0.8285479346626591,1.17397001576829,0.9041902697254688,0,0,0,1
-2.532082574662659,-1.3089751842317099,-0.6687195802745312,0,0,0,1
6.254326325337341,-1.88902288423171,-0.4122487602745312,0,0,0,1
6.254326325337341,-1.88902288423171,-0.4122487602745312,0,0,0,1
4.815618025337341,0.0008232180682901287,0.4556730697254688,0,0,0,1
0.3714127653373409,1.28615271576829,1.8606548197254689,0,0,0,1
-3.6283182746626594,0.6048798157682902,2.7708888197254686,0,0,0,1
5.538023725337341,-0.4374732142317099,1.9238488197254688,0,0,0,1
5.538023725337341,-0.4374732142317099,1.9238488197254688,0,0,0,1
5.375773725337341,-0.4748221442317099,1.7472243197254689,0,0,0,1
5.375773725337341,-0.4748221442317099,1.7472243197254689,0,0,0,1
2.2820315253373407,0.23874640576829012,1.5476690197254688,0,0,0,1
-0.5502743746626592,2.4293156157682905,1.4891041197254689,0,0,0,1
-0.8435072746626591,0.9443158157682902,1.0735412197254688,0,0,0,1
-1.856911674662659,0.6250475857682901,-0.08972374027453123,0,0,0,1
0.9111018253373409,-0.30524854423170983,-0.5497199802745312,0,0,0,1
0.9111018253373409,-0.30524854423170983,-0.5497199802745312,0,0,0,1
4.524219025337341,-1.30196708423171,0.0029040257254687755,0,0,0,1
3.769725325337341,0.04867158576829013,0.33953758972546877,0,0,0,1
3.8870339253373407,0.8684681857682901,0.5450542897254689,0,0,0,1
0.9480405253373408,0.9976765157682902,0.4293473597254688,0,0,0,1
0.9430394253373409,0.9851499157682901,0.7299577197254689,0,0,0,1
0.9430394253373409,0.9851499157682901,0.7299577197254689,0,0,0,1
-3.2043112746626594,2.2163246157682903,0.6366675797254688,0,0,0,1
4.03231172533734,1.3619506157682901,-1.6778280802745311,0,0,0,1
0.5313296253373408,-2.00337308423171,-1.7569526802745312,0,0,0,1
0.5313296253373408,-2.00337308423171,-1.7569526802745312,0,0,0,1
-1.258921174662659,-1.54450068423171,-0.29673472027453124,0,0,0,1
-1.258921174662659,-1.54450068423171,-0.29673472027453124,0,0,0,1
-3.450392274662659,0.4824891157682901,0.2610866697254688,0,0,0,1
1.368158825337341,0.2055958357682901,1.9679456197254688,0,0,0,1
2.8584275253373406,0.17237921576829013,1.297400419725469,0,0,0,1
2.188669725337341,0.6889399457682901,0.9536127197254688,0,0,0,1
1.349472525337341,0.9141345757682902,0.06663271972546878,0,0,0,1
1.349472525337341,0.9141345757682902,0.06663271972546878,0,0,0,1
1.349472525337341,0.9141345757682902,0.06663271972546878,0,0,0,1
0.011859433337340894,-1.24347718423171,-1.5128209802745312,0,0,0,1
-3.0965179746626594,-1.57538748423171,-1.7439869802745311,0,0,0,1
-3.716521274662659,-1.11382508423171,0.8324232197254688,0,0,0,1
2.930325025337341,2.23788091576829,1.5429183197254688,0,0,0,1
2.930325025337341,2.23788091576829,1.5429183197254688,0,0,0,1
2.878957325337341,0.5538417157682901,1.6211073197254688,0,0,0,1
2.878957325337341,0.5538417157682901,1.6211073197254688,0,0,0,1
-5.112874274662659,0.8338248157682902,-0.5569237802745312,0,0,0,1
-4.176341974662659,1.16697681576829,-1.4190661802745312,0,0,0,1
-4.222005274662659,1.73028671576829,-0.4521785102745312,0,0,0,1
-4.222005274662659,1.73028671576829,-0.4521785102745312,0,0,0,1
-3.4933304746626592,1.48213331576829,0.22752114972546877,0,0,0,1
-3.4933304746626592,1.48213331576829,0.22752114972546877,0,0,0,1
0.6823744953373408,-1.4118340842317099,2.0059633197254687,0,0,0,1
3.643354925337341,-4.81904358423171,1.6856023197254688,0,0,0,1
-6.100279274662659,0.2171097557682901,2.7119181197254685,0,0,0,1
-6.100279274662659,0.2171097557682901,2.7119181197254685,0,0,0,1
-6.512940274662659,0.17641066576829012,2.4285863197254685,0,0,0,1
-3.7333554746626594,-2.16172338423171,3.3736407197254685,0,0,0,1
-0.8448338346626592,-0.33240072423170985,1.9481644197254688,0,0,0,1
3.1805930253373407,-0.5437585842317099,1.5532441197254687,0,0,0,1
3.1805930253373407,-0.5437585842317099,1.5532441197254687,0,0,0,1
9.151815725337341,-1.02608898423171,-0.06916085027453123,0,0,0,1
9.151815725337341,-1.02608898423171,-0.06916085027453123,0,0,0,1
-3.5035752746626594,2.0964637157682904,2.2252853197254687,0,0,0,1
-5.646167274662659,1.4828700157682901,2.3033509197254687,0,0,0,1
-5.646167274662659,1.4828700157682901,2.3033509197254687,0,0,0,1
-3.5961017746626593,4.79001391576829,3.2213776197254687,0,0,0,1
-3.5961017746626593,4.79001391576829,3.2213776197254687,0,0,0,1
11.088919725337341,2.27792571576829,6.344773019725468,0,0,0,1
10.020681725337342,1.41587291576829,1.9705529197254688,0,0,0,1
8.263126725337342,-1.03343488423171,-0.004112394274531225,0,0,0,1
4.727346725337341,-2.2381690842317097,-4.989067380274531,0,0,0,1
-2.521852974662659,-3.2404834842317096,-11.791982680274531,0,0,0,1
-2.521852974662659,-3.2404834842317096,-11.791982680274531,0,0,0,1
-4.053651774662659,-1.10118108423171,0.7947233597254688,0,0,0,1
-2.114568274662659,2.00154661576829,2.7472469197254688,0,0,0,1
5.731476325337341,-2.68569058423171,2.3007233197254684,0,0,0,1
3.5147862253373408,-3.5375800842317098,0.13674481972546876,0,0,0,1
3.5147862253373408,-3.5375800842317098,0.13674481972546876,0,0,0,1
2.1374697253373407,-4.980093084231711,-0.6341176302745312,0,0,0,1
-2.0141572746626593,-2.32667508423171,-1.8898267802745312,0,0,0,1
1.209015425337341,-0.5128067842317099,-2.2349817802745315,0,0,0,1
1.125227425337341,-2.41762908423171,0.5962892197254688,0,0,0,1
0.10098411533734089,0.8581406157682901,2.4039146197254686,0,0,0,1
-1.229438274662659,3.3918319157682904,2.2854015197254687,0,0,0,1
-1.229438274662659,3.3918319157682904,2.2854015197254687,0,0,0,1
-0.4615340046626591,2.08861801576829,0.8593135797254688,0,0,0,1
-0.4615340046626591,2.08861801576829,0.8593135797254688,0,0,0,1
0.9672589253373409,-0.15428025423170988,-2.1656501802745316,0,0,0,1
0.1822657753373409,0.03079778276829013,-3.1456739802745313,0,0,0,1
0.1822657753373409,0.03079778276829013,-3.1456739802745313,0,0,0,1
-0.7548231746626591,0.30416201576829016,-2.0328834802745313,0,0,0,1
-0.7548231746626591,0.30416201576829016,-2.0328834802745313,0,0,0,1
-1.504521874662659,-0.05212833423170987,-0.15801922027453122,0,0,0,1
-1.635021674662659,-0.6435107842317098,1.572632919725469,0,0,0,1
-0.8708071746626591,-1.39692228423171,2.8865437197254686,0,0,0,1
-0.13637779466265912,-0.9815731442317098,3.5712773197254686,0,0,0,1
-0.13637779466265912,-0.9815731442317098,3.5712773197254686,0,0,0,1
-0.6552519746626592,-0.5827152842317098,2.5335037197254686,0,0,0,1
-1.254624874662659,-0.49847893423170986,1.5040242197254687,0,0,0,1
-1.254624874662659,-0.49847893423170986,1.5040242197254687,0,0,0,1
-1.254624874662659,-0.49847893423170986,1.5040242197254687,0,0,0,1
-2.0438279746626593,-0.7362989842317098,-0.03192696127453123,0,0,0,1
0.0453572433373409,-0.06891172423170987,-0.6181338102745312,0,0,0,1
0.0453572433373409,-0.06891172423170987,-0.6181338102745312,0,0,0,1
1.520888825337341,0.5980967457682902,-0.6722989402745312,0,0,0,1
3.4101596253373407,-1.30600758423171,1.0382136197254688,0,0,0,1
3.4101596253373407,-1.30600758423171,1.0382136197254688,0,0,0,1
-2.453142174662659,1.06042811576829,2.3049554197254687,0,0,0,1
-2.453142174662659,1.06042811576829,2.3049554197254687,0,0,0,1
-1.988640274662659,-0.019426089231709874,1.3831814197254688,0,0,0,1
-0.7329706746626591,-0.5803236842317099,0.7940036197254688,0,0,0,1
0.1130538153373409,-1.46336908423171,0.32121631972546877,0,0,0,1
0.1130538153373409,-1.46336908423171,0.32121631972546877,0,0,0,1
0.6625781253373408,-1.96899398423171,0.13079019972546876,0,0,0,1
1.148118525337341,-1.82543788423171,0.36031004972546876,0,0,0,1
0.11883689533734089,0.8829368557682902,0.43549823972546875,0,0,0,1
0.11883689533734089,0.8829368557682902,0.43549823972546875,0,0,0,1
-0.1844096046626591,-0.11565476423170987,0.6088527197254688,0,0,0,1
1.736047325337341,-0.25818078423170987,0.7392158197254688,0,0,0,1
1.736047325337341,-0.25818078423170987,0.7392158197254688,0,0,0,1
1.502407525337341,-0.1884733442317099,-0.23971108027453122,0,0,0,1
0.9344306253373409,-0.11453365923170987,0.027240244725468776,0,0,0,1
0.9344306253373409,-0.11453365923170987,0.027240244725468776,0,0,0,1
0.40520145533734087,-0.7493618542317099,0.6842728497254689,0,0,0,1
0.7939181253373409,-0.7626877242317098,0.6840290697254688,0,0,0,1
0.7939181253373409,-0.7626877242317098,0.6840290697254688,0,0,0,1
0.3500247253373409,-0.025476765231709872,0.08638336972546877,0,0,0,1
0.3500247253373409,-0.025476765231709872,0.08638336972546877,0,0,0,1
0.3500247253373409,-0.025476765231709872,0.08638336972546877,0,0,0,1
1.184016725337341,-1.49068378423171,-0.45074752027453124,0,0,0,1
1.184016725337341,-1.49068378423171,-0.45074752027453124,0,0,0,1
1.973564625337341,-1.15579108423171,0.43354991972546875,0,0,0,1
2.034614125337341,-1.43965938423171,1.1369255197254688,0,0,0,1
-0.1218008846626591,-0.19314439423170987,1.2030398197254688,0,0,0,1
-0.9545225746626591,0.5380200157682902,-0.4029662302745312,0,0,0,1
-0.6062035446626591,0.7723464157682901,-1.024102080274531,0,0,0,1
-0.6062035446626591,0.7723464157682901,-1.024102080274531,0,0,0,1
-0.2479767646626591,-0.8557110842317098,-0.6965545102745312,0,0,0,1
-0.2479767646626591,-0.8557110842317098,-0.6965545102745312,0,0,0,1
0.8718724253373409,-0.7835367842317098,1.0642627197254688,0,0,0,1
1.626186825337341,-1.63759138423171,-0.22867891027453122,0,0,0,1
1.626186825337341,-1.63759138423171,-0.22867891027453122,0,0,0,1
1.430616825337341,0.5813852757682901,-0.3473255302745312,0,0,0,1
0.1929345253373409,0.01420538476829013,-0.4466107802745312,0,0,0,1
0.22885848533734088,4.55874291576829,-1.3817746802745312,0,0,0,1
0.22885848533734088,4.55874291576829,-1.3817746802745312,0,0,0,1
0.22885848533734088,4.55874291576829,-1.3817746802745312,0,0,0,1
0.2914443253373409,0.4415122457682901,0.17869570972546878,0,0,0,1
0.9822793253373409,-0.6888041342317098,-1.2955653802745313,0,0,0,1
0.5975585253373409,-0.9148504842317099,0.30653341972546877,0,0,0,1
0.5975585253373409,-0.9148504842317099,0.30653341972546877,0,0,0,1
-0.3430228046626591,-0.31615088423170984,0.8043489697254689,0,0,0,1
-0.3430228046626591,-0.31615088423170984,0.8043489697254689,0,0,0,1
-0.1482262446626591,0.5317165157682902,-0.6498431302745312,0,0,0,1
-0.34928367466265914,-0.8419401442317098,0.8638248197254689,0,0,0,1
-0.4863886746626591,0.36451198576829014,1.9858398197254687,0,0,0,1
-0.4863886746626591,0.36451198576829014,1.9858398197254687,0,0,0,1
1.286897225337341,0.5880542157682901,-0.8737719402745312,0,0,0,1
0.9559598253373409,1.33959271576829,-0.6970269802745311,0,0,0,1
-0.5071043746626591,0.4689579757682901,0.16695561972546877,0,0,0,1
-0.4969134146626591,0.5987959657682902,0.13192491972546877,0,0,0,1
0.7503533253373409,-0.062394958231709874,0.18068608972546876,0,0,0,1
0.7597413253373408,-0.007778239231709871,0.2791663197254688,0,0,0,1
0.7302298753373409,0.6079639157682901,0.4661159197254688,0,0,0,1
-0.0368275476626591,0.6485842657682901,0.29029011972546875,0,0,0,1
-1.062910574662659,0.6353333157682901,-0.03321585227453122,0,0,0,1
0.7585053653373409,-0.04381934923170987,0.2859066997254688,0,0,0,1
1.261515125337341,-0.26022492423170984,-0.30200902027453125,0,0,0,1
0.2322125553373409,0.6678904457682902,-0.8065519802745311,0,0,0,1
-0.05163334166265911,0.5440511157682901,0.4261810497254688,0,0,0,1
0.3580889853373409,0.13498099576829012,0.23734755972546878,0,0,0,1
0.4586281953373409,0.2045165157682901,-0.44893682027453125,0,0,0,1
0.09520961533734089,-0.40246055423170984,-0.42466228027453123,0,0,0,1
0.9120030553373409,0.33259461576829014,0.3937106997254688,0,0,0,1
0.9120030553373409,0.33259461576829014,0.3937106997254688,0,0,0,1
0.9252419653373409,-0.5303591342317099,-0.043720990274531225,0,0,0,1
-0.06596897466265911,-0.27261750423170983,-0.14201525027453124,0,0,0,1
1.792991225337341,-0.44234491423170985,0.5427707697254688,0,0,0,1
1.792991225337341,-0.44234491423170985,0.5427707697254688,0,0,0,1
1.105649525337341,0.2163938757682901,0.011063961725468772,0,0,0,1
0.49716332533734087,0.28714843576829013,-0.29841241027453125,0,0,0,1
0.0034251373373408948,-0.28512741423170984,0.24743425972546879,0,0,0,1
-0.16176937466265912,-0.02299125123170987,0.29111649972546877,0,0,0,1
-0.16176937466265912,-0.02299125123170987,0.29111649972546877,0,0,0,1
0.1410842053373409,0.2676223657682901,0.4694972597254688,0,0,0,1
1.301761125337341,-0.6487110842317099,-0.37759122027453124,0,0,0,1
-0.3112225346626591,-0.5570622542317099,-0.5025965802745312,0,0,0,1
-0.3112225346626591,-0.5570622542317099,-0.5025965802745312,0,0,0,1
-0.6643900746626591,-0.37330354423170986,0.2829752597254688,0,0,0,1
-0.6643900746626591,-0.37330354423170986,0.2829752597254688,0,0,0,1
-0.25504253466265914,-0.2690867042317099,0.6990172597254688,0,0,0,1
0.2586341053373409,-0.15228937423170988,0.20444139972546876,0,0,0,1
0.2586341053373409,-0.15228937423170988,0.20444139972546876,0,0,0,1
0.2586341053373409,-0.15228937423170988,0.20444139972546876,0,0,0,1
0.3920912953373409,0.12073327576829013,0.004013864725468775,0,0,0,1
0.4374642553373409,0.45353671576829013,0.39374301972546877,0,0,0,1
0.4374642553373409,0.45353671576829013,0.39374301972546877,0,0,0,1
-0.1300330046626591,0.8032176157682901,-0.7971556502745312,0,0,0,1
0.1767840553373409,-0.5321591842317098,-0.9371624302745312,0,0,0,1
0.1767840553373409,-0.5321591842317098,-0.9371624302745312,0,0,0,1
0.16684867533734088,-1.77273648423171,0.10731392972546877,0,0,0,1
0.4172282253373409,0.23652018576829012,0.9401221597254689,0,0,0,1
0.4172282253373409,0.23652018576829012,0.9401221597254689,0,0,0,1
1.108415125337341,0.41190161576829015,-0.20626804027453122,0,0,0,1
0.4394259653373409,0.07254053976829013,-1.1364573802745312,0,0,0,1
0.22095443533734088,-0.49579535423170984,0.7142935197254688,0,0,0,1
0.22095443533734088,-0.49579535423170984,0.7142935197254688,0,0,0,1
-0.4855379946626591,-0.12200952423170987,-0.08186749027453123,0,0,0,1
-0.4855379946626591,-0.12200952423170987,-0.08186749027453123,0,0,0,1
-0.4855379946626591,-0.12200952423170987,-0.08186749027453123,0,0,0,1
0.8429837253373409,-0.6032939342317098,-0.14280012027453123,0,0,0,1
0.8429837253373409,-0.6032939342317098,-0.14280012027453123,0,0,0,1
0.10271121533734089,-0.24285806423170989,0.6461147197254689,0,0,0,1
0.10271121533734089,-0.24285806423170989,0.6461147197254689,0,0,0,1
-0.9933285746626591,-0.6037961842317099,0.5435703197254689,0,0,0,1
0.3832688453373409,0.42037819576829016,-0.13748047027453122,0,0,0,1
0.3832688453373409,0.42037819576829016,-0.13748047027453122,0,0,0,1
0.3684563753373409,-0.12334568423170987,-0.6288390802745312,0,0,0,1
0.026834980337340896,-0.14349411423170988,-1.1205496802745312,0,0,0,1
0.5485739853373409,0.32713474576829016,-0.9497978402745312,0,0,0,1
0.1648821953373409,0.5458930157682902,-0.024126501274531226,0,0,0,1
0.1648821953373409,0.5458930157682902,-0.024126501274531226,0,0,0,1
-0.5092453746626591,-0.5242725442317099,1.0219893197254688,0,0,0,1
-0.5538382346626591,-0.6415228842317099,0.9897650197254688,0,0,0,1
1.051415925337341,-0.36858765423170986,-0.6799856102745312,0,0,0,1
0.9016394753373409,-0.25064782423170984,-1.139320780274531,0,0,0,1
0.9016394753373409,-0.25064782423170984,-1.139320780274531,0,0,0,1
0.3254571253373409,0.2209214157682901,-0.8749404802745312,0,0,0,1
-0.6345915746626591,0.7664875157682901,0.004710404725468774,0,0,0,1
-0.9235596746626591,0.3851703557682901,0.5510026197254688,0,0,0,1
-0.2280602246626591,-0.5266444842317098,0.19608112972546876,0,0,0,1
-0.2280602246626591,-0.5266444842317098,0.19608112972546876,0,0,0,1
0.4947285853373409,-1.04741548423171,-0.4469628002745312,0,0,0,1
0.4947285853373409,-1.04741548423171,-0.4469628002745312,0,0,0,1
0.8378701253373408,0.18484179576829013,-0.3440503802745312,0,0,0,1
0.33098174533734087,-0.46021346423170983,-0.5720672802745311,0,0,0,1
0.3117795253373409,-1.83963248423171,-0.6407498402745312,0,0,0,1
0.3117795253373409,-1.83963248423171,-0.6407498402745312,0,0,0,1
-0.1397957646626591,-1.00891468423171,0.032975879725468775,0,0,0,1
0.029559628337340896,-0.19909719423170988,0.6151116797254689,0,0,0,1
-0.3320650746626591,-0.15653030423170988,-0.9966542402745312,0,0,0,1
-0.3320650746626591,-0.15653030423170988,-0.9966542402745312,0,0,0,1
0.7870516953373409,0.5688021157682901,-0.48831603027453124,0,0,0,1
0.7870516953373409,0.5688021157682901,-0.48831603027453124,0,0,0,1
0.7870516953373409,0.5688021157682901,-0.48831603027453124,0,0,0,1
0.6716704253373409,-0.06825212423170987,-0.23977956027453123,0,0,0,1
0.10507442533734089,-0.8456074842317098,0.24215065972546876,0,0,0,1
-0.5296463746626591,0.02142401376829013,-0.3994776302745312,0,0,0,1
0.2387280653373409,0.18472211576829012,-0.5548750802745311,0,0,0,1
0.47740890533734087,-0.1634788342317099,-0.7778784302745312,0,0,0,1
0.9027133253373409,-0.5971890842317099,-0.7827150802745312,0,0,0,1
0.9027133253373409,-0.5971890842317099,-0.7827150802745312,0,0,0,1
0.9027133253373409,-0.5971890842317099,-0.7827150802745312,0,0,0,1
0.7331996253373408,-0.1912570442317099,-0.3282101502745312,0,0,0,1
-0.4424490746626591,-0.24580661423170988,-0.42523375027453125,0,0,0,1
-0.4424490746626591,-0.24580661423170988,-0.42523375027453125,0,0,0,1
0.2944550653373409,-0.44495700423170986,0.38481726972546876,0,0,0,1
0.2944550653373409,-0.44495700423170986,0.38481726972546876,0,0,0,1
0.6950221253373409,0.5046768157682902,-1.5556080802745311,0,0,0,1
0.9891944253373409,0.8283802157682901,-0.9160732802745312,0,0,0,1
0.2632804053373409,0.5321410457682901,-0.9718392202745312,0,0,0,1
-0.4265751746626591,-0.04957823123170987,-0.9212951402745312,0,0,0,1
-0.6576885746626591,-0.1329106542317099,-0.6276747802745312,0,0,0,1
0.3494525253373409,-0.10798982923170987,-0.5184774102745312,0,0,0,1
0.3494525253373409,-0.10798982923170987,-0.5184774102745312,0,0,0,1
0.3494525253373409,-0.10798982923170987,-0.5184774102745312,0,0,0,1
-0.07596824966265911,0.21501861576829012,-0.15630713027453122,0,0,0,1
-0.07596824966265911,0.21501861576829012,-0.15630713027453122,0,0,0,1
-0.07557342466265911,0.2133712657682901,-0.15138713027453124,0,0,0,1
-0.1266951396626591,0.1517489757682901,-0.09014705027453122,0,0,0,1
0.1912417553373409,0.16446890576829012,-0.5164231402745312,0,0,0,1
0.11386825533734089,0.013753551768290129,-1.100737080274531,0,0,0,1
-0.3108754046626591,-0.22130225423170988,-1.4479311802745312,0,0,0,1
-0.0954060396626591,-0.6589626442317098,0.49243601972546874,0,0,0,1
-0.0954060396626591,-0.6589626442317098,0.49243601972546874,0,0,0,1
-0.6597885746626592,0.5563361857682901,0.6222541197254688,0,0,0,1
-0.6597885746626592,0.5563361857682901,0.6222541197254688,0,0,0,1
2.2646717253373407,-0.6980062842317099,-1.0249524802745311,0,0,0,1
-1.128027374662659,0.49014844576829014,-0.3495685202745312,0,0,0,1
-1.128027374662659,0.49014844576829014,-0.3495685202745312,0,0,0,1
-0.9975018346626591,0.01971681776829013,0.44362171972546877,0,0,0,1
-0.061907274662659106,-0.1961099342317099,0.07626887972546877,0,0,0,1
0.2593865553373409,-0.1694633842317099,-0.29938975027453124,0,0,0,1
-0.020986064662659103,-0.7509497242317098,0.6157955197254689,0,0,0,1
1.072698125337341,-0.35589448423170983,-0.08789566027453123,0,0,0,1
0.9733863253373409,0.03456969876829013,-0.5687223802745311,0,0,0,1
0.0014128845373408945,-0.004784744531709871,-1.1081718802745313,0,0,0,1
0.5213437253373409,-0.44767324423170984,-1.5172772802745311,0,0,0,1
0.3689208253373409,0.1418731957682901,-1.0736446802745312,0,0,0,1
0.3689208253373409,0.1418731957682901,-1.0736446802745312,0,0,0,1
-0.9653134146626591,0.5678227757682901,0.12441285972546878,0,0,0,1
-0.3323702746626591,0.1874950157682901,0.45939351972546877,0,0,0,1
0.7468428753373408,-0.1287541842317099,-0.9939832802745312,0,0,0,1
0.7468428753373408,-0.1287541842317099,-0.9939832802745312,0,0,0,1
-0.1406817246626591,-0.16554103423170988,-0.8611333802745311,0,0,0,1
-0.1406817246626591,-0.16554103423170988,-0.8611333802745311,0,0,0,1
0.4593434453373409,-0.06068692423170986,0.33883091972546875,0,0,0,1
0.4593434453373409,-0.06068692423170986,0.33883091972546875,0,0,0,1
0.7255368253373409,-0.007992130231709872,-0.9852855802745312,0,0,0,1
0.2677722253373409,-0.09381483423170987,-1.757739680274531,0,0,0,1
-0.1583161146626591,-0.15979830423170988,-0.5811361402745312,0,0,0,1
-0.0622296176626591,0.0002649609682901285,0.6992416697254689,0,0,0,1
0.2847590653373409,0.33376588576829014,0.6498207697254689,0,0,0,1
0.4531073753373409,0.46901031576829016,-0.8447402802745312,0,0,0,1
0.4531073753373409,0.46901031576829016,-0.8447402802745312,0,0,0,1
0.2042060053373409,0.10711087576829013,-1.6404477802745312,0,0,0,1
-0.21773765466265912,-0.21212528423170987,-1.146242980274531,0,0,0,1
-0.4455008346626591,-0.11233405423170988,-0.15008560027453122,0,0,0,1
0.22549964533734088,0.48493655576829015,0.10842415572546878,0,0,0,1
0.22549964533734088,0.48493655576829015,0.10842415572546878,0,0,0,1
-0.13501499466265912,1.41344671576829,-0.8340512802745311,0,0,0,1
1.072036325337341,-0.6358386842317099,-1.4214072802745312,0,0,0,1
0.27047206533734086,-0.6586519342317099,0.8664567197254688,0,0,0,1
-1.558292874662659,0.6640585857682901,0.4185331697254688,0,0,0,1
-0.45653675466265914,0.7930047157682901,-0.3315813802745312,0,0,0,1
-0.45653675466265914,0.7930047157682901,-0.3315813802745312,0,0,0,1
-0.45653675466265914,0.7930047157682901,-0.3315813802745312,0,0,0,1
0.06782104533734089,-0.01405839323170987,-0.18967620027453122,0,0,0,1
0.7023282253373409,-0.2025372242317099,-1.0454784802745312,0,0,0,1
0.7023282253373409,-0.2025372242317099,-1.0454784802745312,0,0,0,1
0.7023282253373409,-0.2025372242317099,-1.0454784802745312,0,0,0,1
-0.8458046746626591,-0.46389011423170984,0.7362400597254688,0,0,0,1
-0.8458046746626591,-0.46389011423170984,0.7362400597254688,0,0,0,1
0.07345630533734089,-0.22788969423170988,0.5901223697254688,0,0,0,1
1.664877425337341,-0.5740604842317099,-0.33717623027453125,0,0,0,1
1.664877425337341,-0.5740604842317099,-0.33717623027453125,0,0,0,1
0.4025111253373409,-0.8668665842317098,-1.2569694802745313,0,0,0,1
0.06781436533734089,1.63569381576829,0.29755231972546875,0,0,0,1
-0.9210047746626591,1.12591241576829,-0.9733822802745312,0,0,0,1
-0.9210047746626591,1.12591241576829,-0.9733822802745312,0,0,0,1
-0.9210047746626591,1.12591241576829,-0.9733822802745312,0,0,0,1
0.6049781253373409,-1.16077938423171,0.5357258197254688,0,0,0,1
0.6049781253373409,-1.16077938423171,0.5357258197254688,0,0,0,1
0.3002085853373409,-0.03736827923170987,1.1433769197254688,0,0,0,1
0.3153424453373409,0.19519897576829012,-0.7496243802745312,0,0,0,1
0.8491368253373409,-0.40095464423170984,-0.9590772802745312,0,0,0,1
0.8491368253373409,-0.40095464423170984,-0.9590772802745312,0,0,0,1
0.6638589253373409,-0.20234320423170987,-0.6142624802745311,0,0,0,1
-0.5016865546626591,0.6710495157682902,-0.6917871802745311,0,0,0,1
-0.2844080746626591,0.29868181576829017,0.11278268572546878,0,0,0,1
-0.2844080746626591,0.29868181576829017,0.11278268572546878,0,0,0,1
0.5886388253373409,-0.1489829842317099,-0.8340847802745311,0,0,0,1
0.5886388253373409,-0.1489829842317099,-0.8340847802745311,0,0,0,1
0.8313174253373409,0.19791959576829013,-0.42606154027453125,0,0,0,1
-0.1763024146626591,0.3647901157682901,0.17533274972546878,0,0,0,1
-0.5421509746626592,0.28906881576829013,-0.6583508802745311,0,0,0,1
-0.5421509746626592,0.28906881576829013,-0.6583508802745311,0,0,0,1
0.2637562953373409,-0.2207857142317099,-0.43910448027453125,0,0,0,1
0.8114762253373409,-0.7575097542317099,-0.3950115802745312,0,0,0,1
0.18565608533734088,-0.4245602842317099,-0.3006275002745312,0,0,0,1
-1.092000474662659,1.12323501576829,-0.9129487802745312,0,0,0,1
-0.8754391746626591,0.26063151576829013,-0.6451925302745312,0,0,0,1
0.6037917253373409,-1.0817999842317099,0.3624683197254688,0,0,0,1
0.20440436533734088,0.1504707557682901,-0.21302036027453122,0,0,0,1
0.20440436533734088,0.1504707557682901,-0.21302036027453122,0,0,0,1
0.28707839533734086,0.04659737976829013,-0.9039195802745311,0,0,0,1
0.2091632053373409,-0.10824565423170987,-1.2329633802745312,0,0,0,1
0.018885151337340894,-0.03493694623170987,-0.7605744802745312,0,0,0,1
-0.5156664746626591,-0.0016274269317098715,0.3246202197254688,0,0,0,1
-0.5156664746626591,-0.0016274269317098715,0.3246202197254688,0,0,0,1
-0.5156664746626591,-0.0016274269317098715,0.3246202197254688,0,0,0,1
0.8965878653373409,0.03720470076829013,0.4848196197254688,0,0,0,1
1.114504325337341,-0.1614950142317099,-0.15975049027453123,0,0,0,1
1.114504325337341,-0.1614950142317099,-0.15975049027453123,0,0,0,1
-0.10275219466265911,-0.49094698423170985,-0.6122305802745311,0,0,0,1
-0.10408542966265912,-0.04332630023170987,0.29667588972546877,0,0,0,1
-0.10408542966265912,-0.04332630023170987,0.29667588972546877,0,0,0,1
-0.1283011246626591,-0.17168907423170987,-0.5687254802745312,0,0,0,1
0.1831374353373409,-0.04852948723170987,0.4310592197254688,0,0,0,1
0.4324898853373409,0.1391874757682901,1.1606926197254688,0,0,0,1
-0.020102007662659106,0.07213719576829013,-1.0407516802745311,0,0,0,1
-0.020102007662659106,0.07213719576829013,-1.0407516802745311,0,0,0,1
-0.020102007662659106,0.07213719576829013,-1.0407516802745311,0,0,0,1
0.2548794953373409,-0.5600734842317099,0.029587952725468773,0,0,0,1
-0.19292782466265912,0.5374029457682902,0.11898037972546877,0,0,0,1
-0.8448853346626591,-0.1914161242317099,-1.0021851402745312,0,0,0,1
0.020404355337340894,-0.30941556423170985,-0.2614297002745312,0,0,0,1
0.020404355337340894,-0.30941556423170985,-0.2614297002745312,0,0,0,1
0.020404355337340894,-0.30941556423170985,-0.2614297002745312,0,0,0,1
0.0870537953373409,-0.023128134231709868,0.3279704697254688,0,0,0,1
0.0870537953373409,-0.023128134231709868,0.3279704697254688,0,0,0,1
0.0870537953373409,-0.023128134231709868,0.3279704697254688,0,0,0,1
0.0870537953373409,-0.023128134231709868,0.3279704697254688,0,0,0,1
0.6004080953373409,-0.41059778423170984,-1.0348274802745312,0,0,0,1
0.0353207753373409,-0.33754364423170985,-0.28512862027453123,0,0,0,1
0.004434124837340895,-0.46945850423170987,0.3988902197254688,0,0,0,1
-0.0037913161626591057,0.1929590257682901,0.32728406972546875,0,0,0,1
0.5732817853373409,-0.021105092231709872,0.24182911972546878,0,0,0,1
0.5732817853373409,-0.021105092231709872,0.24182911972546878,0,0,0,1
0.5732817853373409,-0.021105092231709872,0.24182911972546878,0,0,0,1
0.7126422253373409,-0.19311384423170988,-0.12345484027453123,0,0,0,1
0.7126422253373409,-0.19311384423170988,-0.12345484027453123,0,0,0,1
0.19050933533734088,0.18765951576829012,-0.22555545027453122,0,0,0,1
0.08898402533734089,0.7339288157682902,-0.22056535027453122,0,0,0,1
0.08898402533734089,0.7339288157682902,-0.22056535027453122,0,0,0,1
0.1555848253373409,0.7747670557682902,-0.04714837827453122,0,0,0,1
0.1555848253373409,0.7747670557682902,-0.04714837827453122,0,0,0,1
0.1555848253373409,0.7747670557682902,-0.04714837827453122,0,0,0,1
0.2332482453373409,-0.43133488423170985,-0.43172005027453125,0,0,0,1
-0.2332949446626591,-0.43397371423170983,-0.2951857202745312,0,0,0,1
-0.2379889346626591,-0.36315153423170987,-0.15751591027453124,0,0,0,1
0.6593585253373409,-0.25832341423170985,0.5553847197254689,0,0,0,1
0.6593585253373409,-0.25832341423170985,0.5553847197254689,0,0,0,1
0.8647599253373409,0.11697675576829013,0.7788429197254688,0,0,0,1
0.0457921193373409,0.48412581576829017,-0.40606658027453124,0,0,0,1
-0.4532742346626591,0.1338173957682901,-0.6798292802745312,0,0,0,1
0.05918361533734089,0.2740594157682901,-0.7230632802745312,0,0,0,1
0.05918361533734089,0.2740594157682901,-0.7230632802745312,0,0,0,1
-0.4112887246626591,-0.5631667842317098,0.8475604197254688,0,0,0,1
-0.4112887246626591,-0.5631667842317098,0.8475604197254688,0,0,0,1
-0.4112887246626591,-0.5631667842317098,0.8475604197254688,0,0,0,1
-0.4112887246626591,-0.5631667842317098,0.8475604197254688,0,0,0,1
0.7734198753373409,0.7009422157682902,-0.5758370502745311,0,0,0,1
1.097260925337341,0.46470417576829015,-0.9485928102745311,0,0,0,1
0.2342333953373409,0.02667107076829013,-0.4778777802745312,0,0,0,1
0.2342333953373409,0.02667107076829013,-0.4778777802745312,0,0,0,1
-0.2329916746626591,0.1282057357682901,0.23837479972546877,0,0,0,1
-0.2329916746626591,0.1282057357682901,0.23837479972546877,0,0,0,1
0.7567506253373409,0.33818818576829013,-0.6362971402745312,0,0,0,1
0.7514739253373409,0.1969493157682901,-0.6494875302745312,0,0,0,1
0.7514739253373409,0.1969493157682901,-0.6494875302745312,0,0,0,1
0.21182490533734089,0.28345094576829016,-0.020972164274531226,0,0,0,1
-0.1947636446626591,0.26666285576829013,0.18253823972546876,0,0,0,1
-0.1947636446626591,0.26666285576829013,0.18253823972546876,0,0,0,1
-1.043638674662659,-0.03666101023170987,0.6523229797254688,0,0,0,1
0.3084111253373409,-0.9775656242317099,0.4739914797254688,0,0,0,1
0.12716247533734087,0.31688209576829013,-0.44633178027453124,0,0,0,1
0.8815064553373408,0.11313207576829012,-1.0540028802745312,0,0,0,1
-0.5964989746626591,0.37280561576829013,-0.35461988027453123,0,0,0,1
-0.2756819546626591,-0.7997380342317099,0.12715336972546876,0,0,0,1
0.2122769553373409,-1.07654568423171,0.6352717597254688,0,0,0,1
0.2122769553373409,-1.07654568423171,0.6352717597254688,0,0,0,1
0.28136492533734087,-0.45192406423170983,0.31989856972546876,0,0,0,1
0.28136492533734087,-0.45192406423170983,0.31989856972546876,0,0,0,1
-0.4453158246626591,0.5872471557682901,-0.7245975802745311,0,0,0,1
-0.4453158246626591,0.5872471557682901,-0.7245975802745311,0,0,0,1
-0.40846012466265913,-0.2084555442317099,0.8405880597254688,0,0,0,1
-0.026452524662659106,-0.30957078423170986,0.7073915897254688,0,0,0,1
0.2624488053373409,-0.2407734242317099,0.27472659972546876,0,0,0,1
0.2624488053373409,-0.2407734242317099,0.27472659972546876,0,0,0,1
0.2624488053373409,-0.2407734242317099,0.27472659972546876,0,0,0,1
0.8868737253373409,0.2898844957682901,-0.25713161027453124,0,0,0,1
0.3556771453373409,0.2760140757682901,-0.12736383027453121,0,0,0,1
-0.4366631346626591,0.22556077576829012,-0.11800483027453124,0,0,0,1
-0.7083086746626591,0.33967493576829016,0.20577069972546877,0,0,0,1
0.4933829453373409,1.30961781576829,-0.8212580802745312,0,0,0,1
1.148253025337341,-2.17519568423171,-0.8430884202745311,0,0,0,1
-0.7505450046626592,1.80860591576829,0.23185166972546878,0,0,0,1
0.5288119253373409,-1.1989509842317099,-0.9472601802745312,0,0,0,1
0.1816191853373409,-0.8074150842317098,-0.21871725027453123,0,0,0,1
-0.7128672446626592,1.44899491576829,0.26178941972546876,0,0,0,1
0.4211926653373409,0.9340930757682901,-0.13039556027453122,0,0,0,1
-0.6897158746626592,-1.08240368423171,1.100040319725469,0,0,0,1
-0.6897158746626592,-1.08240368423171,1.100040319725469,0,0,0,1
0.29587127533734087,-0.6546029842317098,0.5581599197254689,0,0,0,1
0.3759408253373409,0.5918870757682901,-1.1874500802745311,0,0,0,1
-0.30162857466265913,0.33858423576829016,-0.5517209802745312,0,0,0,1
-0.6263918746626591,0.28245991576829016,0.39531727972546876,0,0,0,1
0.1268286853373409,-0.28139625423170983,0.6764843197254689,0,0,0,1
0.9295172853373409,0.16456119576829012,-0.21747950027453122,0,0,0,1
0.9295172853373409,0.16456119576829012,-0.21747950027453122,0,0,0,1
0.28205444533734086,0.27006071576829016,-0.9665414402745311,0,0,0,1
0.28205444533734086,0.27006071576829016,-0.9665414402745311,0,0,0,1
-0.07812736466265911,0.6433703157682902,0.24896475972546878,0,0,0,1
-0.7295222146626591,0.7477136157682901,1.1914107197254689,0,0,0,1
-1.201866574662659,0.2324359257682901,0.5303488697254688,0,0,0,1
0.3641781953373409,0.017171997268290128,-0.6252526402745312,0,0,0,1
-0.2614826946626591,-0.35522864423170986,0.5722498597254688,0,0,0,1
-0.2614826946626591,-0.35522864423170986,0.5722498597254688,0,0,0,1
-0.2614826946626591,-0.35522864423170986,0.5722498597254688,0,0,0,1
0.5330996653373409,-0.4314824842317099,0.6058168197254689,0,0,0,1
0.5330996653373409,-0.4314824842317099,0.6058168197254689,0,0,0,1
0.4098582453373409,0.7793885157682902,-0.7734115402745312,0,0,0,1
0.09389926533734089,0.6157350157682902,-0.8750345802745312,0,0,0,1
0.3347001253373409,-0.15535841423170987,-0.5577064802745312,0,0,0,1
0.1361603853373409,0.7514750157682901,-0.28542568027453125,0,0,0,1
-0.3260617046626591,-0.03576670423170987,0.18906530972546878,0,0,0,1
-0.3726925746626591,-0.38082138423170986,0.8567070697254688,0,0,0,1
-0.3726925746626591,-0.38082138423170986,0.8567070697254688,0,0,0,1
-0.3726925746626591,-0.38082138423170986,0.8567070697254688,0,0,0,1
-0.3726925746626591,-0.38082138423170986,0.8567070697254688,0,0,0,1
0.5269847253373409,0.19736634576829012,0.8745522797254688,0,0,0,1
0.9773678953373409,0.7257487157682901,-1.213088680274531,0,0,0,1
0.8861060253373408,-0.06204770423170987,-0.3620994402745312,0,0,0,1
0.8861060253373408,-0.06204770423170987,-0.3620994402745312,0,0,0,1
0.3842730653373409,-0.6860762842317099,0.6868982197254688,0,0,0,1
0.2094674253373409,-0.5656690842317098,0.8078490197254689,0,0,0,1
0.2094674253373409,-0.5656690842317098,0.8078490197254689,0,0,0,1
-0.5253491246626592,0.7926677657682901,-0.24982813027453124,0,0,0,1
-0.5253491246626592,0.7926677657682901,-0.24982813027453124,0,0,0,1
-0.7312121246626591,-0.8178634442317099,-0.43796708027453124,0,0,0,1
-0.1538691346626591,-0.8495830842317098,0.9578591197254688,0,0,0,1
-0.1538691346626591,-0.8495830842317098,0.9578591197254688,0,0,0,1
0.5895981953373409,-0.28406284423170985,1.382192019725469,0,0,0,1
0.9275784653373409,0.1851761557682901,-0.7156980302745312,0,0,0,1
0.3512835653373409,0.8592269157682901,-1.0781191802745311,0,0,0,1
0.3512835653373409,0.8592269157682901,-1.0781191802745311,0,0,0,1
0.45035602533734087,0.8184737157682901,-1.299773480274531,0,0,0,1
-0.004928095962659106,0.3710897457682901,-1.262843680274531,0,0,0,1
-0.9464325746626591,-0.4347078642317099,-0.7176110802745311,0,0,0,1
-0.6798481746626591,-0.8310843842317098,1.7545191197254688,0,0,0,1
-0.6812042746626591,-0.8236714842317099,1.7451608197254689,0,0,0,1
0.4651732653373409,-0.4225495242317099,0.3033566197254688,0,0,0,1
0.4651732653373409,-0.4225495242317099,0.3033566197254688,0,0,0,1
0.8810477253373409,-0.6178276842317099,-0.5328129802745312,0,0,0,1
0.6011805653373409,0.39195781576829014,0.29135223972546875,0,0,0,1
0.058669585337340895,0.5110544157682901,0.8200739197254688,0,0,0,1
0.058669585337340895,0.5110544157682901,0.8200739197254688,0,0,0,1
-1.804486774662659,0.8966421657682901,-0.4735057802745312,0,0,0,1
0.6652846253373409,0.4353328557682901,-0.8781756502745311,0,0,0,1
0.6652846253373409,0.4353328557682901,-0.8781756502745311,0,0,0,1
2.312402225337341,-0.7161922242317098,-1.1334160802745312,0,0,0,1
1.491305825337341,-0.7523239842317099,-1.396055480274531,0,0,0,1
-1.031518474662659,0.8096279157682902,1.417535619725469,0,0,0,1
-1.031518474662659,0.8096279157682902,1.417535619725469,0,0,0,1
-0.6651444246626591,1.11502081576829,0.7668050197254688,0,0,0,1
-0.6651444246626591,1.11502081576829,0.7668050197254688,0,0,0,1
0.14712478533734089,0.18395127576829012,-0.9172028802745312,0,0,0,1
0.4101004753373409,-0.04219703023170987,-0.5149315802745311,0,0,0,1
0.2211413553373409,-0.26453076423170985,0.06826242972546877,0,0,0,1
0.2211413553373409,-0.26453076423170985,0.06826242972546877,0,0,0,1
0.30575992533734087,-1.01282998423171,-0.10000244027453123,0,0,0,1
0.30575992533734087,-1.01282998423171,-0.10000244027453123,0,0,0,1
-0.1257347896626591,-0.5949729542317098,-0.17225900027453123,0,0,0,1
-0.6726355346626591,0.5181777157682902,-0.11979190027453122,0,0,0,1
-0.3047242046626591,-0.1656752642317099,0.5261909697254689,0,0,0,1
-0.3047242046626591,-0.1656752642317099,0.5261909697254689,0,0,0,1
-0.4871678146626591,-0.1356983042317099,0.5127656197254689,0,0,0,1
0.17249538533734088,-0.23832283423170988,0.06140562972546878,0,0,0,1
0.2692256253373409,-0.29546718423170987,-0.3641233802745312,0,0,0,1
-0.11234138466265911,0.6537689757682902,0.31883021972546877,0,0,0,1
0.2602620253373409,0.4087622357682901,-0.5647452202745312,0,0,0,1
0.5817933253373408,-0.46691731423170985,-0.6096751802745312,0,0,0,1
-0.11234138466265911,0.6537689757682902,0.31883021972546877,0,0,0,1
0.42377330533734087,-0.7191840842317099,0.31371399972546876,0,0,0,1
0.42377330533734087,-0.7191840842317099,0.31371399972546876,0,0,0,1
-0.024146540662659106,0.6345688157682902,0.3338987497254688,0,0,0,1
-0.0420088606626591,0.46990205576829014,-0.09541598027453123,0,0,0,1
-0.2831959546626591,0.31316508576829016,-0.4984304002745312,0,0,0,1
-0.2831959546626591,0.31316508576829016,-0.4984304002745312,0,0,0,1
-0.059706194662659105,0.05939491576829013,-0.08628574027453123,0,0,0,1
-0.06734512466265911,0.13075717576829013,0.10846647472546878,0,0,0,1
-0.06734512466265911,0.13075717576829013,0.10846647472546878,0,0,0,1
-0.017087443662659105,-0.02308343023170987,-0.45447090027453124,0,0,0,1
0.4366660253373409,-0.05966339623170987,0.5536774197254688,0,0,0,1
-0.6406836346626591,0.08494411576829013,-0.27033475027453124,0,0,0,1
-0.028821452662659106,-0.03877965723170987,-0.3703941402745312,0,0,0,1
-0.028821452662659106,-0.03877965723170987,-0.3703941402745312,0,0,0,1
0.5501055853373409,0.11357923176829013,-0.6692368102745312,0,0,0,1
0.8329806253373409,0.22362451576829012,-0.4968995202745312,0,0,0,1
-0.7549042746626591,0.5068414157682901,-0.07919732027453123,0,0,0,1
-0.09513138466265911,0.3189816657682901,-0.12174872027453124,0,0,0,1
-0.33885907466265913,0.35804207576829017,0.2579096197254688,0,0,0,1
-0.33885907466265913,0.35804207576829017,0.2579096197254688,0,0,0,1
0.2827315453373409,0.6480596857682901,-0.34905163027453123,0,0,0,1
0.2827315453373409,0.6480596857682901,-0.34905163027453123,0,0,0,1
0.2197671053373409,-0.1277765442317099,-0.5079357802745311,0,0,0,1
0.2788720253373409,-0.5423130842317099,0.11285003972546877,0,0,0,1
-0.1841416246626591,0.25295205576829016,-0.49752728027453125,0,0,0,1
-0.8576464746626591,-0.31183753423170985,-0.6150768102745312,0,0,0,1
-0.8576464746626591,-0.31183753423170985,-0.6150768102745312,0,0,0,1
-0.055294497662659106,-1.08424308423171,0.8747360197254688,0,0,0,1
1.183245225337341,-0.7395988542317099,1.1026797197254687,0,0,0,1
1.183245225337341,-0.7395988542317099,1.1026797197254687,0,0,0,1
1.734975325337341,-0.24392221423170987,0.6083978197254688,0,0,0,1
1.169088825337341,-0.5642747842317098,-0.4793960202745312,0,0,0,1
-0.8829340746626592,0.4052728857682901,-0.6822164402745312,0,0,0,1
-1.778650774662659,1.23863481576829,0.20364710972546876,0,0,0,1
0.3797412053373409,0.5531938157682902,0.10407873972546877,0,0,0,1
0.9234843253373409,0.08614619576829013,-0.4267937302745312,0,0,0,1
0.2820296453373409,0.19053535576829012,0.12861641972546878,0,0,0,1
0.2820296453373409,0.19053535576829012,0.12861641972546878,0,0,0,1
-0.10745857466265911,0.05080689876829013,0.5187434797254689,0,0,0,1
-0.10745857466265911,0.05080689876829013,0.5187434797254689,0,0,0,1
-0.2295880146626591,0.19747038576829012,0.8054018197254689,0,0,0,1
-0.2295880146626591,0.19747038576829012,0.8054018197254689,0,0,0,1
0.1434531353373409,-0.6012224342317098,-0.14033440027453123,0,0,0,1
0.1434531353373409,-0.6012224342317098,-0.14033440027453123,0,0,0,1
-0.1307492046626591,-0.17565594423170988,-0.020889671274531226,0,0,0,1
-0.1307492046626591,-0.17565594423170988,-0.020889671274531226,0,0,0,1
-0.8652100446626592,0.24187417576829012,-0.9609774802745312,0,0,0,1
-0.8652100446626592,0.24187417576829012,-0.9609774802745312,0,0,0,1
-1.185072374662659,0.26431751576829016,-0.9355715802745311,0,0,0,1
0.33607246533734086,0.42473604576829016,-0.9306364402745312,0,0,0,1
0.14739372533734088,1.36527421576829,-1.1113417802745311,0,0,0,1
0.14739372533734088,1.36527421576829,-1.1113417802745311,0,0,0,1
0.30812408533734087,1.78234521576829,0.19279595972546876,0,0,0,1
0.30812408533734087,1.78234521576829,0.19279595972546876,0,0,0,1
-1.694587174662659,0.41830046576829016,0.3539057697254688,0,0,0,1
-0.07179020466265912,0.18196391576829013,0.33456119972546877,0,0,0,1
-0.07179020466265912,0.18196391576829013,0.33456119972546877,0,0,0,1
0.49751712533734094,0.07196773576829013,0.14170356972546877,0,0,0,1
0.49751712533734094,0.07196773576829013,0.14170356972546877,0,0,0,1
0.49751712533734094,0.07196773576829013,0.14170356972546877,0,0,0,1
0.6900258253373409,0.5103030157682902,-0.12810853027453123,0,0,0,1
-0.6010136446626592,-1.45297218423171,0.5377369797254689,0,0,0,1
-0.6010136446626592,-1.45297218423171,0.5377369797254689,0,0,0,1
-0.6010136446626592,-1.45297218423171,0.5377369797254689,0,0,0,1
-1.180671174662659,-1.40247358423171,0.7979299197254688,0,0,0,1
0.8108849653373409,-0.8213734842317099,2.0249075197254687,0,0,0,1
0.8108849653373409,-0.8213734842317099,2.0249075197254687,0,0,0,1
0.9721780253373409,0.3224476157682901,-0.42117694027453123,0,0,0,1
0.9721780253373409,0.3224476157682901,-0.42117694027453123,0,0,0,1
0.49045039533734086,1.28863021576829,-1.7061438802745312,0,0,0,1
0.6238446253373409,1.5565569157682901,-1.5521786802745312,0,0,0,1
-1.358261574662659,0.5686403157682901,0.06439312972546878,0,0,0,1
-1.543918074662659,0.11341502076829013,0.5101589797254689,0,0,0,1
0.997172825337341,-0.03919492423170987,0.3720724197254688,0,0,0,1
0.997172825337341,-0.03919492423170987,0.3720724197254688,0,0,0,1
0.997172825337341,-0.03919492423170987,0.3720724197254688,0,0,0,1
1.006310025337341,0.01061924176829013,-0.7158129802745312,0,0,0,1
1.006310025337341,0.01061924176829013,-0.7158129802745312,0,0,0,1
-0.7033552746626591,0.1392385557682901,-0.26473656027453124,0,0,0,1
-0.7918133746626591,-0.2257574042317099,0.13970538972546878,0,0,0,1
-1.453586074662659,0.06798477576829014,-0.23433164027453124,0,0,0,1
-0.1261515446626591,0.29921931576829014,-0.19177404027453124,0,0,0,1
1.547260725337341,-0.5085262842317099,-0.48371330027453124,0,0,0,1
1.065195625337341,-0.36886528423170983,-1.2201980802745311,0,0,0,1
0.06623794533734088,-0.4233307042317099,-1.060006580274531,0,0,0,1
0.06623794533734088,-0.4233307042317099,-1.060006580274531,0,0,0,1
-0.031885607662659105,0.47188239576829016,1.1194190197254688,0,0,0,1
1.252825325337341,0.8994531857682901,-1.0433175802745311,0,0,0,1
1.969143425337341,-0.4421324542317099,-0.7866294802745312,0,0,0,1
1.969143425337341,-0.4421324542317099,-0.7866294802745312,0,0,0,1
1.969143425337341,-0.4421324542317099,-0.7866294802745312,0,0,0,1
1.000046225337341,-1.44962858423171,-0.2930822802745312,0,0,0,1
1.000046225337341,-1.44962858423171,-0.2930822802745312,0,0,0,1
-1.043155174662659,0.5456517157682902,0.16298445972546877,0,0,0,1
-1.043155174662659,0.5456517157682902,0.16298445972546877,0,0,0,1
-1.043155174662659,0.5456517157682902,0.16298445972546877,0,0,0,1
0.28359557533734087,0.7773406657682902,0.04477962672546878,0,0,0,1
2.0052295253373407,-0.18256436423170988,0.33673271972546875,0,0,0,1
-0.1914152946626591,-0.9667703842317098,-0.7372216302745311,0,0,0,1
-1.018430274662659,-1.23196268423171,0.3440316597254688,0,0,0,1
-1.018430274662659,-1.23196268423171,0.3440316597254688,0,0,0,1
-1.073608874662659,-0.46592692423170984,0.7667428197254689,0,0,0,1
-1.073608874662659,-0.46592692423170984,0.7667428197254689,0,0,0,1
0.4052138453373409,0.2977433957682901,-0.10264185027453122,0,0,0,1
0.8190283953373408,0.07508291576829013,-0.8076511802745312,0,0,0,1
0.5711608253373409,0.1608200257682901,-0.9026420402745312,0,0,0,1
-0.4422688346626591,0.6665436857682902,-0.6058318802745312,0,0,0,1
-1.309612774662659,1.08723081576829,0.21940716972546878,0,0,0,1
-0.5829357746626591,0.43130724576829016,0.6707931197254688,0,0,0,1
-0.5829357746626591,0.43130724576829016,0.6707931197254688,0,0,0,1
-0.11397884466265912,-0.5894773442317098,-0.9334024502745312,0,0,0,1
-0.2916006746626591,-0.6181983842317098,-0.2849150002745312,0,0,0,1
-0.5053276746626592,-0.04531834723170987,0.23611721972546876,0,0,0,1
-0.058289034662659105,-0.05158207923170987,0.4074784197254688,0,0,0,1
-0.3123049546626591,0.25746541576829013,-0.5882485202745312,0,0,0,1
0.0577950653373409,0.11406846576829013,-0.43873814027453123,0,0,0,1
0.3625559953373409,-0.04890148023170987,-0.5377567102745312,0,0,0,1
0.47926570533734086,0.1905719157682901,-0.6607685402745311,0,0,0,1
1.117601925337341,0.19029219576829012,-0.6070106302745312,0,0,0,1
1.117601925337341,0.19029219576829012,-0.6070106302745312,0,0,0,1
0.1492219153373409,0.6225782857682901,-0.37945834027453124,0,0,0,1
0.1492219153373409,0.6225782857682901,-0.37945834027453124,0,0,0,1
-0.11997364466265911,-0.8010814842317099,0.28326889972546876,0,0,0,1
-1.004110774662659,-0.26516900423170986,0.06010278972546878,0,0,0,1
0.0425219693373409,-0.08634535423170987,0.6002121897254689,0,0,0,1
2.1257177253373407,0.39556049576829017,-0.6335786802745311,0,0,0,1
2.1257177253373407,0.39556049576829017,-0.6335786802745311,0,0,0,1
1.368589925337341,-1.65813008423171,-1.3981744802745313,0,0,0,1
1.368589925337341,-1.65813008423171,-1.3981744802745313,0,0,0,1
1.368589925337341,-1.65813008423171,-1.3981744802745313,0,0,0,1
-1.264899674662659,-0.15623048423170988,1.9868118197254687,0,0,0,1
1.450978725337341,-1.21440738423171,-0.6410899502745312,0,0,0,1
1.450978725337341,-1.21440738423171,-0.6410899502745312,0,0,0,1
1.450978725337341,-1.21440738423171,-0.6410899502745312,0,0,0,1
0.9469094253373409,-0.44396702423170986,0.043237893725468775,0,0,0,1
0.30134154533734087,0.46771301576829016,0.3966230997254688,0,0,0,1
-0.4353051046626591,0.9238288557682901,-0.3285897102745312,0,0,0,1
-0.4353051046626591,0.9238288557682901,-0.3285897102745312,0,0,0,1
0.4908509453373409,0.7235167157682901,-0.0003513412745312257,0,0,0,1
0.9628148253373409,0.5972839157682901,0.0017748757254687749,0,0,0,1
0.7428765253373409,0.45076914576829014,-0.21683028027453122,0,0,0,1
0.3922696253373409,0.12882121576829011,-0.3015607802745312,0,0,0,1
-0.014989359662659105,0.05864908176829013,0.17856606972546876,0,0,0,1
-0.014989359662659105,0.05864908176829013,0.17856606972546876,0,0,0,1
0.11170341533734089,-0.38362858423170987,0.5193531197254688,0,0,0,1
-0.43752239466265913,0.11175348576829013,0.3143336497254688,0,0,0,1
0.12626602533734088,0.2474137157682901,0.2747882197254688,0,0,0,1
-0.5425362446626592,-0.11760823423170987,0.07519456572546877,0,0,0,1
-0.5425362446626592,-0.11760823423170987,0.07519456572546877,0,0,0,1
1.265905825337341,-0.46613268423170984,0.22657140972546877,0,0,0,1
1.265905825337341,-0.46613268423170984,0.22657140972546877,0,0,0,1
1.265905825337341,-0.46613268423170984,0.22657140972546877,0,0,0,1
1.023891925337341,0.31648285576829016,0.5580971197254688,0,0,0,1
0.6315064553373408,0.48374526576829013,-0.10106125627453123,0,0,0,1
-0.4195389546626591,0.8029266757682901,-0.5360787202745312,0,0,0,1
-0.4195389546626591,0.8029266757682901,-0.5360787202745312,0,0,0,1
-1.246715974662659,0.07464362976829013,0.6579324897254688,0,0,0,1
-0.6449169746626591,-0.42102186423170984,0.7844738597254688,0,0,0,1
-0.6449169746626591,-0.42102186423170984,0.7844738597254688,0,0,0,1
1.083093225337341,-0.34298471423170984,0.5615030797254689,0,0,0,1
1.956421425337341,0.02196593876829013,0.4261592197254688,0,0,0,1
1.592284725337341,-0.16970602423170988,0.6282768197254688,0,0,0,1
1.592284725337341,-0.16970602423170988,0.6282768197254688,0,0,0,1
-0.2195172146626591,0.6533025157682901,-0.18359283027453124,0,0,0,1
-0.20385597466265912,0.1435207957682901,-0.12336400027453123,0,0,0,1
-0.009723170462659105,-0.27819655423170986,0.23618706972546877,0,0,0,1
0.053661839337340894,0.0017402951682901286,0.29738684972546875,0,0,0,1
0.053661839337340894,0.0017402951682901286,0.29738684972546875,0,0,0,1
-0.3693013046626591,0.40853895576829014,0.25789626972546875,0,0,0,1
0.5578875653373409,-0.5412743542317099,0.4059456197254688,0,0,0,1
0.5578875653373409,-0.5412743542317099,0.4059456197254688,0,0,0,1
0.3951916853373409,-0.4262697542317099,0.4893594697254688,0,0,0,1
-0.16500423466265912,0.8371440157682901,0.07139095472546877,0,0,0,1
-0.16500423466265912,0.8371440157682901,0.07139095472546877,0,0,0,1
-0.44807767466265913,-0.46603415423170985,-0.30232290027453124,0,0,0,1
-0.9525294146626591,-1.49175758423171,0.4098878197254688,0,0,0,1
-0.9525294146626591,-1.49175758423171,0.4098878197254688,0,0,0,1
-1.797490074662659,-1.08962448423171,0.9824352497254688,0,0,0,1
-1.582094674662659,-0.49960178423170987,0.7162660597254689,0,0,0,1
-1.582094674662659,-0.49960178423170987,0.7162660597254689,0,0,0,1
2.008476725337341,0.0007685606682901285,-1.0082129802745312,0,0,0,1
1.015822925337341,0.7612005657682901,-1.1576980802745311,0,0,0,1
1.015822925337341,0.7612005657682901,-1.1576980802745311,0,0,0,1
1.015822925337341,0.7612005657682901,-1.1576980802745311,0,0,0,1
-0.6198086746626591,0.6427697157682901,-0.08544651027453123,0,0,0,1
-0.6198086746626591,0.6427697157682901,-0.08544651027453123,0,0,0,1
0.5026536253373409,0.17057331576829013,1.3765641197254688,0,0,0,1
0.5026536253373409,0.17057331576829013,1.3765641197254688,0,0,0,1
0.2978463253373409,0.7133434557682902,1.699241219725469,0,0,0,1
-1.078366774662659,-0.2441481742317099,0.20487126972546876,0,0,0,1
-1.078366774662659,-0.2441481742317099,0.20487126972546876,0,0,0,1
-0.3202175946626591,-1.36531918423171,0.13787301972546878,0,0,0,1
0.9943595253373408,-1.17676108423171,1.3802976197254688,0,0,0,1
0.26341582533734087,0.26761181576829013,1.1276451197254689,0,0,0,1
-0.6061224746626591,0.6452305457682902,0.004974929725468774,0,0,0,1
-0.6061224746626591,0.6452305457682902,0.004974929725468774,0,0,0,1
0.4966216253373409,0.4201293757682901,-0.3291638202745312,0,0,0,1
1.399412625337341,0.37029511576829016,0.026984779725468772,0,0,0,1
-1.004640074662659,-0.35423062423170987,1.242809519725469,0,0,0,1
-1.952364474662659,-0.05689887423170987,1.8233537197254688,0,0,0,1
-1.196257074662659,0.6342100157682902,1.3226943197254688,0,0,0,1
1.769118825337341,0.25385017576829016,-1.0283069802745313,0,0,0,1
1.769118825337341,0.25385017576829016,-1.0283069802745313,0,0,0,1
1.769118825337341,0.25385017576829016,-1.0283069802745313,0,0,0,1
1.249649525337341,-0.03991846423170987,-0.7475946302745312,0,0,0,1
-0.4985976046626591,-0.8790806342317099,1.0902128197254688,0,0,0,1
-0.4985976046626591,-0.8790806342317099,1.0902128197254688,0,0,0,1
0.21459247533734088,-0.39470528423170986,1.669253419725469,0,0,0,1
-0.1820187446626591,1.22136281576829,-1.288612380274531,0,0,0,1
-0.8895554346626591,0.8508025557682901,-1.0387581802745312,0,0,0,1
-0.5553736746626591,0.40337701576829016,0.9454866197254689,0,0,0,1
1.360621025337341,-0.39510784423170986,-0.36997405027453123,0,0,0,1
0.8183016953373409,0.16760339576829011,-0.6600413802745312,0,0,0,1
0.8183016953373409,0.16760339576829011,-0.6600413802745312,0,0,0,1
-0.7184910746626592,0.7080277157682902,0.21334233972546876,0,0,0,1
1.318673625337341,-0.07341633423170987,0.9261582197254689,0,0,0,1
1.318673625337341,-0.07341633423170987,-0.10971203627453123,0,0,0,1
0.2561230853373409,-0.13852117423170987,-0.9503861802745311,0,0,0,1
-0.3326220346626591,-0.04216991023170987,-0.11233976627453122,0,0,0,1
-0.3772559046626591,-0.04163299123170987,1.011659019725469,0,0,0,1
-0.3772559046626591,-0.04163299123170987,1.011659019725469,0,0,0,1
0.3122639853373409,0.44535418576829017,0.6265654797254688,0,0,0,1
0.3896279453373409,1.39302311576829,-0.23713943027453124,0,0,0,1
0.6708245253373409,-0.9781738342317099,-0.4902961602745312,0,0,0,1
0.6708245253373409,-0.9781738342317099,-0.4902961602745312,0,0,0,1
-0.8372130246626591,0.10590537576829014,1.220602219725469,0,0,0,1
-0.8372130246626591,0.10590537576829014,1.220602219725469,0,0,0,1
-0.6483483146626591,-1.25213958423171,0.3561349197254688,0,0,0,1
1.078156025337341,-0.05551509223170987,-0.22613117027453122,0,0,0,1
1.078156025337341,-0.05551509223170987,-0.22613117027453122,0,0,0,1
0.15504886533734089,-0.8212890442317099,0.28319086972546875,0,0,0,1
-0.2237372246626591,-0.5007474242317098,1.0075163197254688,0,0,0,1
-0.2237372246626591,-0.5007474242317098,1.0075163197254688,0,0,0,1
-0.5061325746626592,0.49965389576829017,0.6652160597254688,0,0,0,1
-1.000459174662659,1.03231911576829,0.11517717972546877,0,0,0,1
-0.8172001746626592,1.04837921576829,-0.42406078027453126,0,0,0,1
0.6876750253373409,-0.34723648423170983,0.02624204572546877,0,0,0,1
0.6876750253373409,-0.34723648423170983,0.02624204572546877,0,0,0,1
1.043094125337341,-0.3189991542317099,0.16695066972546876,0,0,0,1
1.153869125337341,-0.5390904842317099,0.3136551197254688,0,0,0,1
0.3240952653373409,-0.2669210242317099,0.4721340497254688,0,0,0,1
-0.5220751746626591,-0.2487528142317099,0.18410750972546877,0,0,0,1
-0.8368840046626591,0.12270935576829013,0.18422903972546878,0,0,0,1
-0.5377516746626592,-0.29876206423170987,0.3051197497254688,0,0,0,1
0.6882853653373409,0.23984153576829012,-0.11006537027453123,0,0,0,1
0.6882853653373409,0.23984153576829012,-0.11006537027453123,0,0,0,1
0.7065987753373408,0.08406265576829013,0.08265134572546877,0,0,0,1
-0.07757423466265911,-0.006605726231709871,-0.3432287302745312,0,0,0,1
-0.07757423466265911,-0.006605726231709871,-0.3432287302745312,0,0,0,1
-0.07757423466265911,-0.006605726231709871,-0.3432287302745312,0,0,0,1
0.4087033453373409,0.05471040576829013,0.9045955797254688,0,0,0,1
1.181863325337341,-0.2119931942317099,0.7225650197254688,0,0,0,1
1.181863325337341,-0.2119931942317099,0.7225650197254688,0,0,0,1
1.181863325337341,-0.2119931942317099,0.7225650197254688,0,0,0,1
1.181863325337341,-0.2119931942317099,0.7225650197254688,0,0,0,1
0.26203014533734087,0.1829263157682901,-0.6159372802745312,0,0,0,1
-0.26240871466265914,0.1594032257682901,-0.21036604027453124,0,0,0,1
-0.7156290746626591,0.09835560976829014,1.1857397197254689,0,0,0,1
-0.7156290746626591,0.09835560976829014,1.1857397197254689,0,0,0,1
0.7123017253373409,0.09462888576829014,0.062379749725468774,0,0,0,1
1.231505925337341,0.8147542157682901,-0.49092236027453123,0,0,0,1
1.388178325337341,-0.17381678423170988,-0.5912924102745312,0,0,0,1
-1.252847174662659,-0.1534821842317099,0.3780849897254688,0,0,0,1
-0.8147921446626591,-0.36699258423170983,1.267829019725469,0,0,0,1
0.3109936853373409,0.3109140557682901,1.2545153197254688,0,0,0,1
0.3109936853373409,0.3109140557682901,1.2545153197254688,0,0,0,1
0.3109936853373409,0.3109140557682901,1.2545153197254688,0,0,0,1
1.826402225337341,0.06401588376829012,-1.462632280274531,0,0,0,1
0.9905581653373409,0.02401472976829013,-1.820811680274531,0,0,0,1
-0.2903399346626591,0.005985993568290129,-0.9619668402745312,0,0,0,1
-0.6741108746626591,-0.33176170423170986,0.5747246197254688,0,0,0,1
-0.4912190246626591,-1.02596678423171,1.3316777197254688,0,0,0,1
-0.4912190246626591,-1.02596678423171,1.3316777197254688,0,0,0,1
-0.4912190246626591,-1.02596678423171,1.3316777197254688,0,0,0,1
0.019754902337340896,-0.12802682423170988,1.316365919725469,0,0,0,1
0.6695351753373409,2.00391871576829,-0.7962292802745312,0,0,0,1
-0.3199362546626591,1.97268131576829,-1.1434068802745312,0,0,0,1
0.20615817533734088,2.23851921576829,-1.1424961802745313,0,0,0,1
0.4991603253373409,-2.24633258423171,0.35307484972546876,0,0,0,1
0.4991603253373409,-2.24633258423171,0.35307484972546876,0,0,0,1
-0.6221403746626591,-1.70513628423171,1.3526694197254687,0,0,0,1
-0.9266752746626591,-0.2467241742317099,1.332688019725469,0,0,0,1
-0.9266752746626591,-0.2467241742317099,1.332688019725469,0,0,0,1
0.03982307133734089,-0.41278211423170985,0.3192633197254688,0,0,0,1
0.7478718953373409,-0.5236087842317099,-0.29267565027453124,0,0,0,1
0.8144965253373408,0.01705290676829013,-0.5724026802745312,0,0,0,1
0.5634770553373409,0.5316552157682901,-0.4654413202745312,0,0,0,1
0.5634770553373409,0.5316552157682901,-0.4654413202745312,0,0,0,1
-0.3913550246626591,0.46272965576829017,-0.14621458027453124,0,0,0,1
-0.3915915346626591,0.4588626157682901,-0.14349297027453123,0,0,0,1
0.7137561253373409,0.1765094557682901,-0.5756970402745312,0,0,0,1
0.7137561253373409,0.1765094557682901,-0.5756970402745312,0,0,0,1
0.7137561253373409,0.1765094557682901,-0.5756970402745312,0,0,0,1
0.7137561253373409,0.1765094557682901,-0.5756970402745312,0,0,0,1
-0.7040228746626591,0.4786369657682901,0.05626722972546878,0,0,0,1
-0.6152796746626591,0.6076698457682902,0.5578404197254688,0,0,0,1
0.2014737253373409,0.5456563157682901,0.6640708697254688,0,0,0,1
0.8175578253373409,0.29948307576829014,0.42422493972546876,0,0,0,1
0.8175578253373409,0.29948307576829014,0.42422493972546876,0,0,0,1
-0.10636947966265911,0.008084136768290128,-0.3870772402745312,0,0,0,1
-0.4170374746626591,-0.08550993423170987,-0.33927336027453125,0,0,0,1
0.2663464753373409,1.17538831576829,0.20889818972546878,0,0,0,1
-0.08073948466265911,1.08660851576829,0.19636579972546878,0,0,0,1
-0.08073948466265911,1.08660851576829,0.19636579972546878,0,0,0,1
0.4679331953373409,0.11839016076829013,0.008287040725468774,0,0,0,1
1.360443625337341,-0.6147340342317098,-0.36443808027453123,0,0,0,1
0.5313372753373409,0.47387896576829014,-0.9873344802745312,0,0,0,1
-0.6437163146626591,1.6167066157682901,-0.7983658802745311,0,0,0,1
-0.6437163146626591,1.6167066157682901,-0.7983658802745311,0,0,0,1
1.279704625337341,1.50132321576829,-1.0133731802745312,0,0,0,1
1.107511025337341,-0.06952438923170987,-0.8012169302745312,0,0,0,1
-1.273219574662659,0.7050138157682901,-0.8421179802745312,0,0,0,1
-0.2705187746626591,-0.17420761423170988,-0.20026466027453124,0,0,0,1
0.4725728253373409,-0.2154723242317099,-0.2589010302745312,0,0,0,1
0.1842284353373409,-0.42691103423170984,0.03208902372546878,0,0,0,1
-0.5392241346626591,-0.2448483542317099,0.41847267972546875,0,0,0,1
-0.6172833246626591,0.5166225657682901,0.5082920197254688,0,0,0,1
-0.6172833246626591,0.5166225657682901,0.5082920197254688,0,0,0,1
0.3095297953373409,0.5565808157682901,-0.8770713802745311,0,0,0,1
0.3095297953373409,0.5565808157682901,-0.8770713802745311,0,0,0,1
1.259104225337341,-0.2533525642317099,-1.2651176802745312,0,0,0,1
1.101666025337341,-0.5372621242317098,-0.9704992502745312,0,0,0,1
1.101666025337341,-0.5372621242317098,-0.9704992502745312,0,0,0,1
1.101666025337341,-0.5372621242317098,-0.9704992502745312,0,0,0,1
0.27749969533734087,0.08688153576829014,-0.7938319202745312,0,0,0,1
0.33779098533734087,-0.16567949423170988,-0.5155955302745312,0,0,0,1
0.33779098533734087,-0.16567949423170988,-0.5155955302745312,0,0,0,1
0.3514895553373409,0.2578244357682901,0.37259811972546875,0,0,0,1
-1.977111774662659,0.13693173576829012,0.42484443972546876,0,0,0,1
-1.977111774662659,0.13693173576829012,0.42484443972546876,0,0,0,1
0.2618422653373409,0.2276163857682901,-0.18411598027453124,0,0,0,1
0.9525466253373409,0.41094394576829013,-0.8365294802745312,0,0,0,1
0.9525466253373409,0.41094394576829013,-0.8365294802745312,0,0,0,1
0.3321080253373409,0.6068664157682901,-1.221474680274531,0,0,0,1
-0.5337681746626591,0.36321349576829015,-1.0588544802745312,0,0,0,1
-1.133068574662659,0.41393551576829013,-1.2520546802745312,0,0,0,1
-1.133068574662659,0.41393551576829013,-1.2520546802745312,0,0,0,1
0.9839358253373409,-0.5559919842317098,-0.34317520027453124,0,0,0,1
-0.7854056246626591,-0.29271696423170984,-0.34800448027453124,0,0,0,1
-0.7854056246626591,-0.29271696423170984,-0.34800448027453124,0,0,0,1
-1.193190074662659,0.03665383576829013,-0.23680660027453124,0,0,0,1
-0.19510506466265912,0.011016684768290128,-0.18913630027453124,0,0,0,1
0.023643986337340894,0.29356463576829017,-0.6775827802745312,0,0,0,1
0.20552302533734088,0.47559727576829014,-1.0791900802745311,0,0,0,1
0.3620591253373409,0.23464741576829012,-1.1588475802745313,0,0,0,1
0.3620591253373409,0.23464741576829012,-1.1588475802745313,0,0,0,1
0.3592267253373409,0.011850196768290128,-1.0671024802745313,0,0,0,1
0.3592267253373409,0.011850196768290128,-1.0671024802745313,0,0,0,1
0.3592267253373409,0.011850196768290128,-1.0671024802745313,0,0,0,1
-0.1626553346626591,0.25325979576829016,-0.47432128027453124,0,0,0,1
-0.3069157446626591,-0.10536954923170987,-0.5918323102745312,0,0,0,1
0.1652951353373409,0.03343840276829013,-0.4107535202745312,0,0,0,1
0.1652951353373409,0.03343840276829013,-0.4107535202745312,0,0,0,1
0.1652951353373409,0.03343840276829013,-0.4107535202745312,0,0,0,1
0.1652951353373409,0.03343840276829013,-0.4107535202745312,0,0,0,1
0.4983058253373409,-0.00836078523170987,-0.5794319202745312,0,0,0,1
0.4983058253373409,-0.00836078523170987,-0.5794319202745312,0,0,0,1
0.7317033253373408,0.41572617576829013,-0.7082160802745312,0,0,0,1
0.06832648933734088,0.9019987757682901,-0.8123301802745312,0,0,0,1
0.06832648933734088,0.9019987757682901,-0.8123301802745312,0,0,0,1
-0.4798827046626591,0.45113067576829013,-0.40033212027453124,0,0,0,1
-0.6597170746626592,0.7383326157682901,-0.47540692027453124,0,0,0,1
0.38553764533734086,0.16910089576829013,-0.24129012027453123,0,0,0,1
0.7406029853373409,-0.062010508231709865,-0.3312025402745312,0,0,0,1
0.17741824533734088,0.16828961576829013,-0.6314195802745312,0,0,0,1
0.17741824533734088,0.16828961576829013,-0.6314195802745312,0,0,0,1
-1.117111674662659,0.29646531576829016,-0.6018605802745312,0,0,0,1
-0.7334151146626591,-0.4294071642317099,-0.12650934027453123,0,0,0,1
1.495467725337341,-0.5898928842317098,0.10490580972546877,0,0,0,1
1.495467725337341,-0.5898928842317098,0.10490580972546877,0,0,0,1
1.495467725337341,-0.5898928842317098,0.10490580972546877,0,0,0,1
0.1675543953373409,0.3871565357682901,-0.45562676027453125,0,0,0,1
0.1675543953373409,0.3871565357682901,-0.45562676027453125,0,0,0,1
-0.6700253346626591,0.43933711576829015,-0.6654309302745312,0,0,0,1
-0.7327370746626591,0.5940565157682901,-0.23714558027453123,0,0,0,1
0.0660729553373409,0.38366954576829015,-0.4578856502745312,0,0,0,1
0.0660729553373409,0.38366954576829015,-0.4578856502745312,0,0,0,1
0.8144116553373408,0.01669414676829013,-0.5634501302745312,0,0,0,1
1.213627325337341,0.02360000076829013,-1.2688680802745311,0,0,0,1
0.7171521253373409,0.11953313976829014,-1.3003821802745312,0,0,0,1
-0.5679116046626591,0.4617476657682901,-0.37106946027453125,0,0,0,1
-0.5679116046626591,0.4617476657682901,-0.37106946027453125,0,0,0,1
-1.293361174662659,0.5059588157682902,0.19924231972546877,0,0,0,1
-0.1829094746626591,0.43850471576829014,0.48184821972546876,0,0,0,1
0.41580154533734087,0.02851583376829013,0.4220872797254688,0,0,0,1
0.8697495653373409,-0.12940798423170988,0.3840553397254688,0,0,0,1
0.7697148253373409,-0.18237273423170988,-0.5631062102745312,0,0,0,1
0.7697148253373409,-0.18237273423170988,-0.5631062102745312,0,0,0,1
-0.6743693146626591,1.17105771576829,-0.8870624802745312,0,0,0,1
-0.6743693146626591,1.17105771576829,-0.8870624802745312,0,0,0,1
-0.46557663466265914,1.00859831576829,-0.7717446402745312,0,0,0,1
0.0610175293373409,0.6100470157682901,-0.03916326327453122,0,0,0,1
0.4000945253373409,0.44824548576829015,0.3407612697254688,0,0,0,1
1.544281525337341,-0.5327602842317098,0.36029573972546874,0,0,0,1
0.8519463653373409,-1.17628958423171,-0.16925922027453122,0,0,0,1
0.8519463653373409,-1.17628958423171,-0.16925922027453122,0,0,0,1
0.8519463653373409,-1.17628958423171,-0.16925922027453122,0,0,0,1
0.09456397533734089,-0.04256204923170987,1.0505666197254688,0,0,0,1
0.5753817753373409,-0.5190874142317099,0.42507179972546877,0,0,0,1
0.5753817753373409,-0.5190874142317099,0.42507179972546877,0,0,0,1
0.12259627533734088,-0.32634125423170984,-0.36468473027453124,0,0,0,1
0.12259627533734088,-0.32634125423170984,-0.36468473027453124,0,0,0,1
-0.7734217746626592,0.4825470157682901,-0.022336395274531226,0,0,0,1
-0.17756126466265912,0.9401890157682902,0.5752302197254688,0,0,0,1
0.6289897253373409,1.15027121576829,0.21894057972546876,0,0,0,1
1.966768725337341,-0.38769588423170986,-0.6948611802745311,0,0,0,1
1.966768725337341,-0.38769588423170986,-0.6948611802745311,0,0,0,1
-0.3440537246626591,-0.5822864842317098,-0.8371389202745312,0,0,0,1
-0.3440537246626591,-0.5822864842317098,-0.8371389202745312,0,0,0,1
2.173441425337341,-0.6221066842317099,-0.20909503027453122,0,0,0,1
2.173441425337341,-0.6221066842317099,-0.20909503027453122,0,0,0,1
2.173441425337341,-0.6221066842317099,-0.20909503027453122,0,0,0,1
2.173441425337341,-0.6221066842317099,-0.20909503027453122,0,0,0,1
2.173441425337341,-0.6221066842317099,-0.20909503027453122,0,0,0,1
2.173441425337341,-0.6221066842317099,-0.20909503027453122,0,0,0,1
-0.07547138466265911,0.3772833857682901,0.2570074497254688,0,0,0,1
-0.07547138466265911,0.3772833857682901,0.2570074497254688,0,0,0,1
-0.07547138466265911,0.3772833857682901,0.2570074497254688,0,0,0,1
0.5197386853373409,-0.4468811542317099,0.8616270197254688,0,0,0,1
0.5197386853373409,-0.4468811542317099,0.8616270197254688,0,0,0,1
-0.1414351346626591,0.2429383257682901,1.0695447197254688,0,0,0,1
-0.2637410046626591,0.31418101576829016,0.7672492597254689,0,0,0,1
0.3408103253373409,-0.06017164423170987,0.05856963972546878,0,0,0,1
0.3408103253373409,-0.06017164423170987,0.05856963972546878,0,0,0,1
0.4085917653373409,0.09059088576829014,-0.3822117202745312,0,0,0,1
0.6563782853373409,0.11467229176829014,-0.40910140027453124,0,0,0,1
0.9840026253373408,0.32200806576829016,-0.09494367027453122,0,0,0,1
-0.5394873746626591,-0.15670780423170988,0.4982428797254688,0,0,0,1
-0.4666991046626591,0.005903888168290129,0.9186935197254689,0,0,0,1
-0.4666991046626591,0.005903888168290129,0.9186935197254689,0,0,0,1
-0.023694498662659106,-0.2094603042317099,0.9860199197254689,0,0,0,1
-0.023694498662659106,-0.2094603042317099,0.9860199197254689,0,0,0,1
-0.023694498662659106,-0.2094603042317099,0.9860199197254689,0,0,0,1
0.06686736533734089,-0.46071324423170984,0.4738782197254688,0,0,0,1
0.4523797253373409,-0.30485574423170986,0.7144233197254688,0,0,0,1
0.3078828053373409,0.08340858576829013,0.5059219897254689,0,0,0,1
0.19223739533734088,0.1973982357682901,0.29148931972546877,0,0,0,1
0.3466162853373409,0.49447734576829017,-0.2525564802745312,0,0,0,1
0.3466162853373409,0.49447734576829017,-0.2525564802745312,0,0,0,1
0.5118165253373409,0.30705513576829013,-0.05426946427453122,0,0,0,1
-0.24403236466265912,1.0612555157682901,0.13946041972546877,0,0,0,1
0.07139922533734089,-0.2170637642317099,0.7907213197254688,0,0,0,1
0.4963765253373409,0.44547717576829016,0.9105794697254688,0,0,0,1
0.4963765253373409,0.44547717576829016,0.9105794697254688,0,0,0,1
0.8987336253373409,0.07060341576829013,0.8251977797254688,0,0,0,1
0.12545444533734088,-0.30406634423170986,-0.44137815027453126,0,0,0,1
0.12545444533734088,-0.30406634423170986,-0.44137815027453126,0,0,0,1
0.12545444533734088,-0.30406634423170986,-0.44137815027453126,0,0,0,1
-0.6120533746626591,-0.3638205842317099,0.8769607197254689,0,0,0,1
1.094143425337341,-0.7810496542317099,1.2066621197254688,0,0,0,1
1.094143425337341,-0.7810496542317099,1.2066621197254688,0,0,0,1
1.290762425337341,0.13155301576829012,0.2758667197254688,0,0,0,1
0.7440514753373408,0.17846493576829012,-0.29415634027453125,0,0,0,1
0.7440514753373408,0.17846493576829012,-0.29415634027453125,0,0,0,1
-0.2438492646626591,0.7014624157682902,-0.16360978027453124,0,0,0,1
-0.3898949446626591,1.2098181157682901,0.49101581972546876,0,0,0,1
-0.3898949446626591,1.2098181157682901,0.49101581972546876,0,0,0,1
-0.09677646966265911,0.6985121157682902,-0.42984728027453123,0,0,0,1
-0.1768278946626591,-0.03656719423170987,-1.0688290802745313,0,0,0,1
-0.1567425546626591,-0.3574366842317099,0.8830228197254688,0,0,0,1
-0.1567425546626591,-0.3574366842317099,0.8830228197254688,0,0,0,1
-0.3796534346626591,-0.36169758423170983,1.6350550197254687,0,0,0,1
-0.3796534346626591,-0.36169758423170983,1.6350550197254687,0,0,0,1
0.8565240253373408,-0.1860671442317099,0.5844420197254688,0,0,0,1
0.6345448653373409,0.33343456576829017,-0.6689237802745311,0,0,0,1
0.6345448653373409,0.33343456576829017,-0.6689237802745311,0,0,0,1
0.6345448653373409,0.33343456576829017,-0.6689237802745311,0,0,0,1
0.21365501533734088,1.00509551576829,-0.39563635027453126,0,0,0,1
0.17369987533734088,0.7223000757682901,0.0005820677254687748,0,0,0,1
0.07619716533734089,0.5579611157682901,-0.10891524027453123,0,0,0,1
0.1606679153373409,-0.2744690342317099,0.3083042197254688,0,0,0,1
-0.6063914146626591,-0.15883572423170988,1.2624344197254689,0,0,0,1
-0.6063914146626591,-0.15883572423170988,1.2624344197254689,0,0,0,1
0.5082030253373409,-0.04624862623170987,0.6410100197254688,0,0,0,1
0.7431311753373409,0.06554381576829013,0.14984878972546878,0,0,0,1
0.9104838253373408,0.20578377576829013,-0.43527248027453125,0,0,0,1
1.541501525337341,0.25297777576829017,-0.6524793802745312,0,0,0,1
1.857597825337341,0.5078649657682901,-0.6089784202745312,0,0,0,1
1.180352725337341,0.6386751157682902,0.15606960972546877,0,0,0,1
0.29618692533734087,-0.7799220842317098,0.8193052697254688,0,0,0,1
-2.378226774662659,2.06611371576829,1.5495204197254688,0,0,0,1
-2.378226774662659,2.06611371576829,1.5495204197254688,0,0,0,1
-2.1268076746626594,2.3937769157682904,0.9027068897254689,0,0,0,1
-2.1268076746626594,2.3937769157682904,0.9027068897254689,0,0,0,1
-0.39807937466265914,2.3121567157682903,-0.24113122027453124,0,0,0,1
3.260659725337341,-0.45473651423170985,-1.780422280274531,0,0,0,1
2.5795092253373406,-2.24818538423171,-1.4813680802745313,0,0,0,1
2.5795092253373406,-2.24818538423171,-1.4813680802745313,0,0,0,1
-0.8514790346626591,-1.31189848423171,-1.1721742802745312,0,0,0,1
-0.8514790346626591,-1.31189848423171,-1.1721742802745312,0,0,0,1
0.2070546253373409,0.5655105157682901,1.4928396197254687,0,0,0,1
-1.052363874662659,1.13387321576829,1.4845795197254688,0,0,0,1
0.6597647853373408,0.1585409557682901,1.161963419725469,0,0,0,1
0.7220006253373409,0.49690227576829016,-0.46429935027453123,0,0,0,1
0.7220006253373409,0.49690227576829016,-0.46429935027453123,0,0,0,1
0.7220006253373409,0.49690227576829016,-0.46429935027453123,0,0,0,1
0.7220006253373409,0.49690227576829016,-0.46429935027453123,0,0,0,1
-0.030688746662659104,0.43175611576829015,-1.1419475802745311,0,0,0,1
0.026788250337340894,0.2313007857682901,-1.2374024802745311,0,0,0,1
-0.6192755746626591,0.41684849576829014,-1.068058280274531,0,0,0,1
1.269986625337341,-0.43519885423170984,0.4190600497254688,0,0,0,1
1.269929425337341,-0.43170808423170987,0.4175975897254688,0,0,0,1
-0.0376095606626591,0.49895101576829015,1.1819169197254689,0,0,0,1
0.4492116253373409,0.5377449157682902,1.4218821197254687,0,0,0,1
-0.7117819746626591,0.25614588576829017,0.07690312972546877,0,0,0,1
-0.7117819746626591,0.25614588576829017,0.07690312972546877,0,0,0,1
-0.7117819746626591,0.25614588576829017,0.07690312972546877,0,0,0,1
0.3381858053373409,0.8498611657682902,-0.9678637802745311,0,0,0,1
0.3381858053373409,0.8498611657682902,-0.9678637802745311,0,0,0,1
-0.43024395466265913,0.5573839157682902,0.3094940497254688,0,0,0,1
-0.9326348146626591,0.47222081576829017,0.6032221597254688,0,0,0,1
1.077166125337341,0.36266941576829015,0.7939829197254689,0,0,0,1
1.077166125337341,0.36266941576829015,0.7939829197254689,0,0,0,1
0.5275531253373409,0.18988944576829012,0.08987596472546877,0,0,0,1
-0.6141152246626591,-0.19752610423170988,-0.16154352027453123,0,0,0,1
-0.7131657446626591,-0.40495304423170986,-0.2904893502745312,0,0,0,1
-0.7131657446626591,-0.40495304423170986,-0.2904893502745312,0,0,0,1
-0.7131657446626591,-0.40495304423170986,-0.2904893502745312,0,0,0,1
0.5699544253373409,0.7402618157682902,-0.2789304602745312,0,0,0,1
1.565226125337341,0.7123202157682902,-0.025147350274531226,0,0,0,1
1.139150125337341,0.7130944157682901,-0.014349789974531225,0,0,0,1
-0.015742762662659105,0.5496787657682901,0.09421929572546878,0,0,0,1
-0.015742762662659105,0.5496787657682901,0.09421929572546878,0,0,0,1
-0.4894547346626591,0.30182071576829017,0.22612979972546876,0,0,0,1
-0.5568775746626591,0.09446712176829013,0.09040352572546877,0,0,0,1
-0.34970901466265913,0.2417233957682901,-0.08638105027453123,0,0,0,1
0.5792479653373409,0.1871228957682901,-0.10943773527453123,0,0,0,1
0.1348929553373409,-0.33693108423170987,-0.16712978027453124,0,0,0,1
-0.2939333746626591,-0.6963313842317098,-0.04712656327453122,0,0,0,1
0.009927289337340894,-0.43008778423170985,0.5056286197254688,0,0,0,1
0.009927289337340894,-0.43008778423170985,0.5056286197254688,0,0,0,1
0.3327374653373409,0.9326460557682902,0.2823850797254688,0,0,0,1
0.1551566253373409,0.05650476576829013,0.05948933972546878,0,0,0,1
-0.4199652546626591,-0.40725110423170985,-0.20469031027453122,0,0,0,1
0.23014117533734088,-0.2524723542317099,-0.49352708027453124,0,0,0,1
0.5955338653373409,0.07620578576829012,-0.20297739027453124,0,0,0,1
0.5955338653373409,0.07620578576829012,-0.20297739027453124,0,0,0,1
-0.0556502176626591,0.5252659157682902,-0.050432892274531224,0,0,0,1
-0.1364521746626591,-0.1399501042317099,0.5313747797254689,0,0,0,1
-0.1364521746626591,-0.1399501042317099,0.5313747797254689,0,0,0,1
0.1815533753373409,-0.04512138423170987,0.6513919497254689,0,0,0,1
0.4674506253373409,0.42797281576829016,0.3709670597254688,0,0,0,1
0.4674506253373409,0.42797281576829016,0.3709670597254688,0,0,0,1
1.044595225337341,-0.26782713423170984,-0.003024370974531225,0,0,0,1
-1.373441174662659,-0.1838488942317099,-0.26550952027453123,0,0,0,1
-1.373441174662659,-0.1838488942317099,-0.26550952027453123,0,0,0,1
-0.7118353746626591,0.15220444576829012,-0.10765877527453123,0,0,0,1
-0.7118353746626591,0.15220444576829012,-0.10765877527453123,0,0,0,1
0.5679488253373409,0.2277582757682901,-0.09113845027453123,0,0,0,1
1.272877225337341,0.2509988757682901,-0.10034820627453123,0,0,0,1
1.272877225337341,0.2509988757682901,-0.10034820627453123,0,0,0,1
-0.9740853146626591,-0.11111128023170987,0.03596964372546878,0,0,0,1
-1.472304774662659,-0.13356013423170987,0.10966029972546877,0,0,0,1
-1.472304774662659,-0.13356013423170987,0.10966029972546877,0,0,0,1
-0.3791336746626591,-0.4398954842317099,0.2510474197254688,0,0,0,1
0.7669167653373409,-0.24941412423170986,0.2970834697254688,0,0,0,1
0.8390612753373409,0.23348863576829013,0.10994436972546877,0,0,0,1
0.8390612753373409,0.23348863576829013,0.10994436972546877,0,0,0,1
-0.3123745746626591,-0.27850664423170984,-0.11238870027453123,0,0,0,1
-0.5339245746626591,1.16595191576829,-0.3128867502745312,0,0,0,1
0.7844596253373409,0.6250329757682901,-0.3723531102745312,0,0,0,1
0.8795533253373409,0.022872253768290128,-0.5081527802745311,0,0,0,1
0.8795533253373409,0.022872253768290128,-0.5081527802745311,0,0,0,1
0.6544490253373408,-0.30115894423170986,-0.44026932027453125,0,0,0,1
0.36718894533734087,0.06675844976829012,-0.11668733027453122,0,0,0,1
-1.016960574662659,0.6360638157682902,0.21063997972546877,0,0,0,1
-0.045088274662659106,0.1986724757682901,0.27926401972546877,0,0,0,1
-0.045088274662659106,0.1986724757682901,0.27926401972546877,0,0,0,1
0.6530022753373409,-0.06866737823170987,-0.12207398027453123,0,0,0,1
0.5214181253373409,-1.16800958423171,-0.6529694802745312,0,0,0,1
-0.08644531466265912,-1.07542278423171,-0.41116014027453124,0,0,0,1
-1.128052274662659,0.08484355576829013,-0.2505968502745312,0,0,0,1
0.4307656453373409,0.6424376557682902,0.12045236972546877,0,0,0,1
0.4307656453373409,0.6424376557682902,0.12045236972546877,0,0,0,1
1.252201525337341,-0.40345168423170985,-0.5241119802745312,0,0,0,1
1.252201525337341,-0.40345168423170985,-0.5241119802745312,0,0,0,1
1.252201525337341,-0.40345168423170985,-0.5241119802745312,0,0,0,1
-1.198266474662659,0.30450658576829015,-0.06538644627453123,0,0,0,1
-1.733779374662659,0.5793397657682902,-0.012852282874531225,0,0,0,1
-1.733779374662659,0.5793397657682902,-0.012852282874531225,0,0,0,1
0.6269650653373409,0.08927247976829013,-0.0020389272745312253,0,0,0,1
0.6269650653373409,0.08927247976829013,-0.0020389272745312253,0,0,0,1
0.9760842253373408,0.1270323057682901,-0.2666738802745312,0,0,0,1
0.9760842253373408,0.1270323057682901,-0.2666738802745312,0,0,0,1
0.9849858253373409,-0.28036485423170987,-0.26772371027453123,0,0,0,1
-0.2293076346626591,0.1864255657682901,-0.2523481602745312,0,0,0,1
-0.8669161746626591,0.39727257576829017,-0.3926260802745312,0,0,0,1
-0.8669161746626591,0.39727257576829017,-0.3926260802745312,0,0,0,1
0.4735407953373409,-0.8010382442317099,-0.5641072102745311,0,0,0,1
0.4735407953373409,-0.8010382442317099,-0.5641072102745311,0,0,0,1
0.4735407953373409,-0.8010382442317099,-0.5641072102745311,0,0,0,1
0.1147999953373409,-0.9520900842317098,-0.17652098027453123,0,0,0,1
0.2312207353373409,-0.3156369842317099,0.08011683972546876,0,0,0,1
0.044543759337340894,0.5155973157682902,0.25307395972546876,0,0,0,1
0.25060702533734086,0.8575911657682902,-0.14585468027453122,0,0,0,1
0.7526211853373409,0.20053418576829013,-0.22947666027453123,0,0,0,1
0.7526211853373409,0.20053418576829013,-0.22947666027453123,0,0,0,1
-0.4818796946626591,-0.8398595842317098,-0.6969211802745312,0,0,0,1
-0.7002491746626591,-0.8544141442317098,-0.6035949302745311,0,0,0,1
0.2900099953373409,0.29859297576829014,-0.08527574027453123,0,0,0,1
0.3409466953373409,0.5199195157682901,0.12073471972546876,0,0,0,1
0.3409466953373409,0.5199195157682901,0.12073471972546876,0,0,0,1
-0.2269282146626591,-0.8866195542317099,-0.39260033027453123,0,0,0,1
-0.26953075466265913,-0.6884835842317099,-0.3587761202745312,0,0,0,1
-0.26953075466265913,-0.6884835842317099,-0.3587761202745312,0,0,0,1
0.6333708953373409,-0.05804106423170987,-0.48116645027453125,0,0,0,1
0.10625220933734089,-0.5659581242317099,-0.39991215027453125,0,0,0,1
-0.4475769746626591,-0.5657593842317099,-0.19085291027453122,0,0,0,1
-0.5247874146626591,-0.10612705023170987,-0.050427050274531225,0,0,0,1
-0.5247874146626591,-0.10612705023170987,-0.050427050274531225,0,0,0,1
-0.5247874146626591,-0.10612705023170987,-0.050427050274531225,0,0,0,1
0.4216208653373409,0.6435565157682901,-0.17535779027453122,0,0,0,1
0.4787583553373409,0.29862191576829017,-0.24388573027453123,0,0,0,1
0.08925582533734089,-0.7382856842317098,-0.7008596402745312,0,0,0,1
0.7705016253373409,0.16075601576829013,-0.09412041427453123,0,0,0,1
0.08364059133734089,-0.1808230942317099,0.033523049725468775,0,0,0,1
0.08364059133734089,-0.1808230942317099,0.033523049725468775,0,0,0,1
-0.4838490346626591,-0.32668761423170983,-0.18673006027453123,0,0,0,1
-0.5684990746626591,0.2361941057682901,-0.4391993602745312,0,0,0,1
-0.5684990746626591,0.2361941057682901,-0.4391993602745312,0,0,0,1
-0.5684990746626591,0.2361941057682901,-0.4391993602745312,0,0,0,1
0.48489047533734086,-0.03602622123170987,-0.7407108802745311,0,0,0,1
0.3691945253373409,-0.13735688423170989,-0.4853858102745312,0,0,0,1
0.3691945253373409,-0.13735688423170989,-0.4853858102745312,0,0,0,1
0.3691945253373409,-0.13735688423170989,-0.4853858102745312,0,0,0,1
0.021410481337340897,-0.05384419423170987,-0.18520144027453123,0,0,0,1
-0.6102309046626591,-0.5191452842317098,0.11416342972546877,0,0,0,1
-0.8768534746626591,-0.7169813842317099,0.026932923725468776,0,0,0,1
-0.33886192466265913,-0.7825677242317098,0.22981789972546876,0,0,0,1
0.3873534253373409,-0.6246286442317098,-0.017336757274531225,0,0,0,1
0.3873534253373409,-0.6246286442317098,-0.017336757274531225,0,0,0,1
0.8096995253373409,-0.26263336423170985,-0.10408702627453123,0,0,0,1
0.8096995253373409,-0.26263336423170985,-0.10408702627453123,0,0,0,1
0.8602328253373409,0.31665791576829017,-0.42080060027453126,0,0,0,1
0.0031590623373408946,0.33380838576829014,-0.5919938402745312,0,0,0,1
0.0031590623373408946,0.33380838576829014,-0.5919938402745312,0,0,0,1
-0.4260897446626591,0.22293041576829012,-0.39694478027453123,0,0,0,1
-0.4260897446626591,0.22293041576829012,-0.39694478027453123,0,0,0,1
0.4211659553373409,0.29693235576829013,-0.15672067027453124,0,0,0,1
0.8066554253373409,0.05599768776829013,-0.12780908027453122,0,0,0,1
0.11033965533734089,-0.30102215423170986,0.031107989725468774,0,0,0,1
-1.230156374662659,-0.23823250423170989,0.12639405972546877,0,0,0,1
-0.5503172746626591,0.039280939768290134,-0.045431170274531224,0,0,0,1
-0.5503172746626591,0.039280939768290134,-0.045431170274531224,0,0,0,1
1.270613225337341,-0.4139009242317099,-0.8818451502745311,0,0,0,1
0.3200583653373409,-0.20588390423170988,-0.7079820802745311,0,0,0,1
-1.081946874662659,0.2094788157682901,-0.17734841027453124,0,0,0,1
-2.112061474662659,0.36481431576829015,-0.06829861027453123,0,0,0,1
-1.252584874662659,0.02266238976829013,0.09819492572546877,0,0,0,1
1.325421825337341,-0.21660317423170988,-0.21697488027453124,0,0,0,1
1.325421825337341,-0.21660317423170988,-0.21697488027453124,0,0,0,1
1.325421825337341,-0.21660317423170988,-0.21697488027453124,0,0,0,1
0.5222583253373408,-0.5759683842317098,-0.43897024027453124,0,0,0,1
-0.5502524246626591,-0.40063605423170984,-0.49282006027453124,0,0,0,1
-0.5502524246626591,-0.40063605423170984,-0.49282006027453124,0,0,0,1
-0.5502524246626591,-0.40063605423170984,-0.49282006027453124,0,0,0,1
-1.097187474662659,0.08366076976829014,-0.40001765027453123,0,0,0,1
0.7538991253373409,0.6849713557682902,-0.2551811102745312,0,0,0,1
0.9405484253373408,0.5583849157682902,-0.04318955727453122,0,0,0,1
0.4598326853373409,0.030939835768290132,-0.20529845027453122,0,0,0,1
-0.07081268466265911,-0.38422828423170985,0.23554267972546877,0,0,0,1
-0.07081268466265911,-0.38422828423170985,0.23554267972546877,0,0,0,1
-0.7157301746626591,-0.26155378423170983,0.09324928972546877,0,0,0,1
1.311312225337341,0.34640891576829014,-0.20263389027453124,0,0,0,1
1.311312225337341,0.34640891576829014,-0.20263389027453124,0,0,0,1
1.328876025337341,0.49788137576829017,-0.31114403027453125,0,0,0,1
1.328876025337341,0.49788137576829017,-0.31114403027453125,0,0,0,1
0.6898064753373409,-0.19215054423170988,-0.40843918027453124,0,0,0,1
0.5486712653373409,-0.46756355423170987,-0.7135576302745312,0,0,0,1
0.5486712653373409,-0.46756355423170987,-0.7135576302745312,0,0,0,1
0.5486712653373409,-0.46756355423170987,-0.7135576302745312,0,0,0,1
-0.3364634346626591,0.12621485076829012,-0.28576961027453124,0,0,0,1
-1.335527874662659,1.14981201576829,-0.08684161427453123,0,0,0,1
0.058142201337340896,-0.25110048423170983,-0.11814311027453123,0,0,0,1
0.058142201337340896,-0.25110048423170983,-0.11814311027453123,0,0,0,1
1.505852225337341,-0.8073615842317099,-0.34850838027453124,0,0,0,1
1.507744325337341,-0.8023817842317098,-0.3345711502745312,0,0,0,1
1.507744325337341,-0.8023817842317098,-0.3345711502745312,0,0,0,1
2.482073325337341,-0.26665721423170985,0.0018707197254687743,0,0,0,1
-1.605112574662659,0.2895396157682901,-0.5945617302745312,0,0,0,1
-2.2975772746626593,-0.29156575423170983,-0.6677408802745312,0,0,0,1
-1.748790274662659,-0.44138718423170986,-0.5082646802745312,0,0,0,1
-1.748790274662659,-0.44138718423170986,-0.5082646802745312,0,0,0,1
-0.17449138466265912,0.2285926957682901,-0.16100517027453123,0,0,0,1
-0.17449138466265912,0.2285926957682901,-0.16100517027453123,0,0,0,1
1.405067025337341,0.7790813657682901,0.023573367725468777,0,0,0,1
2.866400225337341,0.8534626557682902,-0.034518511274531226,0,0,0,1
2.866400225337341,0.8534626557682902,-0.034518511274531226,0,0,0,1
1.783756725337341,0.9696604157682901,-0.6669793402745312,0,0,0,1
0.3768687453373409,0.8745142157682901,-0.6122951802745312,0,0,0,1
-1.264316974662659,1.08395721576829,-0.48238458027453124,0,0,0,1
-1.264316974662659,1.08395721576829,-0.48238458027453124,0,0,0,1
-2.761918974662659,1.74573511576829,0.18808182972546877,0,0,0,1
-0.9386276746626591,0.9742769157682901,0.5072229197254688,0,0,0,1
1.193223525337341,-0.3000427842317099,0.3447578797254688,0,0,0,1
2.109006425337341,-0.8943597842317098,-0.018359334774531225,0,0,0,1
1.898722225337341,-0.9581066142317098,-0.04853466327453122,0,0,0,1
1.898722225337341,-0.9581066142317098,-0.04853466327453122,0,0,0,1
0.17510844533734088,-0.08958187423170987,-0.2579706002745312,0,0,0,1
0.8269953853373408,0.6237093157682901,-0.3831535802745312,0,0,0,1
0.1978020853373409,0.7452147757682901,-0.050193818274531225,0,0,0,1
-0.6130614146626591,0.9257446157682901,0.07934268972546878,0,0,0,1
-0.6130614146626591,0.9257446157682901,0.07934268972546878,0,0,0,1
0.2654328553373409,1.09616081576829,0.18344947972546877,0,0,0,1
0.2654328553373409,1.09616081576829,0.18344947972546877,0,0,0,1
-0.0564570266626591,-0.23692758423170987,-0.6099776302745312,0,0,0,1
0.5978722753373409,0.07852194076829012,-0.2711536002745312,0,0,0,1
0.5978722753373409,0.07852194076829012,-0.2711536002745312,0,0,0,1
0.3881554753373409,0.7829935757682901,0.5208478197254688,0,0,0,1
0.5243039253373409,-0.08427060823170987,0.6671554197254689,0,0,0,1
-0.21229313466265912,-0.5141814842317098,0.7991722497254689,0,0,0,1
-0.21229313466265912,-0.5141814842317098,0.7991722497254689,0,0,0,1
-0.6257433746626591,0.12155707576829013,0.10358890972546878,0,0,0,1
-0.6257433746626591,0.12155707576829013,0.10358890972546878,0,0,0,1
1.085716725337341,1.23299121576829,-0.6543340802745312,0,0,0,1
1.085716725337341,1.23299121576829,-0.6543340802745312,0,0,0,1
1.085716725337341,1.23299121576829,-0.6543340802745312,0,0,0,1
-0.060920222662659104,-0.08468943423170987,-0.7326821402745312,0,0,0,1
-1.170432574662659,-0.07112061423170987,-0.07442191027453122,0,0,0,1
0.41600848533734086,0.6739446157682901,0.8055923897254689,0,0,0,1
0.41600848533734086,0.6739446157682901,0.8055923897254689,0,0,0,1
1.111589925337341,0.37084545576829014,0.8561391497254688,0,0,0,1
0.3613658253373409,-0.5564433142317099,0.29503891972546875,0,0,0,1
0.3613658253373409,-0.5564433142317099,0.29503891972546875,0,0,0,1
-0.9396719746626591,1.02190351576829,-0.6229195802745312,0,0,0,1
-0.9396719746626591,1.02190351576829,-0.6229195802745312,0,0,0,1
-0.0009856063626591054,0.7752623757682902,-0.5240055802745311,0,0,0,1
1.071966625337341,0.05014105576829013,-0.5063301602745311,0,0,0,1
1.329812525337341,-0.7586501842317098,-0.5028149202745312,0,0,0,1
-0.3277544746626591,-0.7917539842317098,0.5181631197254688,0,0,0,1
-0.4262213546626591,0.07906233076829013,1.051784519725469,0,0,0,1
-0.4262213546626591,0.07906233076829013,1.051784519725469,0,0,0,1
0.5665736253373409,1.20963851576829,0.5652740897254688,0,0,0,1
0.7764096253373409,-0.7221406542317098,-0.7141212802745311,0,0,0,1
0.7764096253373409,-0.7221406542317098,-0.7141212802745311,0,0,0,1
-0.1445517346626591,-0.8286858842317099,-0.9707678802745312,0,0,0,1
-0.12935970466265911,1.13406711576829,-0.45959702027453125,0,0,0,1
-0.12935970466265911,1.13406711576829,-0.45959702027453125,0,0,0,1
0.3229527653373409,-0.7297181342317098,0.3780874197254688,0,0,0,1
0.3229527653373409,-0.7297181342317098,0.3780874197254688,0,0,0,1
0.2684025953373409,-0.9708339842317099,0.49568001972546877,0,0,0,1
0.2684025953373409,-0.9708339842317099,0.49568001972546877,0,0,0,1
-0.3530382946626591,0.42424881576829016,0.6021329197254688,0,0,0,1
-0.09480999466265912,0.6412701157682902,0.2599225897254688,0,0,0,1
-0.09480999466265912,0.6412701157682902,0.2599225897254688,0,0,0,1
0.5526461753373408,0.32644401576829013,-0.09419754027453123,0,0,0,1
0.5526461753373408,0.32644401576829013,-0.09419754027453123,0,0,0,1
-0.2549166546626591,-0.48257730423170986,-0.8940625502745312,0,0,0,1
0.16612483533734088,1.3563914157682901,-0.14840642027453124,0,0,0,1
0.16612483533734088,1.3563914157682901,-0.14840642027453124,0,0,0,1
0.7487616653373409,0.1501363957682901,0.28202148972546875,0,0,0,1
-0.028535349662659106,-1.15128248423171,0.31208869972546877,0,0,0,1
-0.1875424246626591,-1.37576908423171,0.48178949972546875,0,0,0,1
-0.006259425262659105,-0.45581434423170986,0.3233387197254688,0,0,0,1
0.2402024453373409,0.9004816157682901,-0.024932654274531226,0,0,0,1
0.6816134653373409,0.6276370457682902,-0.10066286027453122,0,0,0,1
0.6816134653373409,0.6276370457682902,-0.10066286027453122,0,0,0,1
0.6816134653373409,0.6276370457682902,-0.10066286027453122,0,0,0,1
-0.1503977646626591,-0.5735335842317099,-0.8435061302745311,0,0,0,1
-0.040147288662659104,-0.9163342842317098,-0.41039994027453125,0,0,0,1
-0.040147288662659104,-0.9163342842317098,-0.41039994027453125,0,0,0,1
0.5207553253373409,0.7769221857682902,0.42779835972546876,0,0,0,1
-0.0616822086626591,-0.9730288842317099,-0.022666724274531227,0,0,0,1
-0.0616822086626591,-0.9730288842317099,-0.022666724274531227,0,0,0,1
-0.5511250346626592,-1.41265768423171,0.028133241725468775,0,0,0,1
-0.5511250346626592,-1.41265768423171,0.028133241725468775,0,0,0,1
-0.8410362746626591,-0.7607757842317099,0.17944439972546877,0,0,0,1
-0.8410362746626591,-0.7607757842317099,0.17944439972546877,0,0,0,1
1.153691725337341,0.5047699157682901,-0.17332927027453124,0,0,0,1
1.917264525337341,0.09233859576829014,-0.27323488027453124,0,0,0,1
1.917264525337341,0.09233859576829014,-0.27323488027453124,0,0,0,1
1.210106425337341,-0.012072217231709871,-0.38539234027453123,0,0,0,1
1.210106425337341,-0.012072217231709871,-0.38539234027453123,0,0,0,1
-0.08692978466265912,0.12322853576829013,-0.09062019027453123,0,0,0,1
-0.37279079466265913,0.5083308157682901,0.17060288972546878,0,0,0,1
-0.3945898746626591,1.04662351576829,0.33991893972546877,0,0,0,1
-0.3945898746626591,1.04662351576829,0.33991893972546877,0,0,0,1
1.739737025337341,0.12995608576829012,0.14210685972546877,0,0,0,1
1.221740225337341,-0.8072371342317098,-0.20106331027453123,0,0,0,1
-0.2152199546626591,-1.31977198423171,-0.3239058602745312,0,0,0,1
-0.9753155746626591,-0.8534707242317099,-0.20424405027453124,0,0,0,1
-0.8778347746626591,0.04641883576829013,0.10008820972546877,0,0,0,1
-0.8778347746626591,0.04641883576829013,0.10008820972546877,0,0,0,1
1.540386725337341,-0.5844816342317098,-0.11513403027453123,0,0,0,1
1.540386725337341,-0.5844816342317098,-0.11513403027453123,0,0,0,1
1.540386725337341,-0.5844816342317098,-0.11513403027453123,0,0,0,1
-1.455745174662659,0.34040297576829015,0.11925240972546877,0,0,0,1
-1.268814574662659,1.1920273157682901,0.21390911972546878,0,0,0,1
-1.268814574662659,1.1920273157682901,0.21390911972546878,0,0,0,1
-1.268814574662659,1.1920273157682901,0.21390911972546878,0,0,0,1
0.7751889253373409,0.2266076657682901,-0.19034150027453123,0,0,0,1
1.142457525337341,-0.13790604423170988,-1.0285894802745312,0,0,0,1
-0.2706961446626591,0.43539975576829015,-0.14271525027453122,0,0,0,1
-0.7019667746626591,0.9799648657682901,0.19948788972546877,0,0,0,1
0.13681365533734088,-0.5100059842317098,0.3364147797254688,0,0,0,1
0.08060313533734088,-1.20302408423171,0.4277486497254688,0,0,0,1
-0.2872586046626591,0.7918865157682902,0.24551888972546876,0,0,0,1
0.1403288953373409,1.40911451576829,-0.03169110527453122,0,0,0,1
1.424668825337341,-0.7955433842317099,-0.5428028402745312,0,0,0,1
0.32955409533734087,-0.8968977842317098,-0.7951369802745312,0,0,0,1
-0.5468067746626591,-0.1597715442317099,-0.34805898027453125,0,0,0,1
-0.5468067746626591,-0.1597715442317099,-0.34805898027453125,0,0,0,1
-0.5477289746626591,0.6463905157682901,0.4699911797254688,0,0,0,1
0.8930239853373408,-0.013449650231709872,0.15220650972546876,0,0,0,1
1.321004425337341,-0.1322601542317099,-0.017606170274531225,0,0,0,1
0.9441676253373409,-0.027238812231709875,-0.13625863027453122,0,0,0,1
0.1417613253373409,0.6065627157682901,-0.3208660202745312,0,0,0,1
-0.28218697466265913,0.8884358557682901,-0.43074706027453125,0,0,0,1
-0.043749314662659106,0.6560197157682901,-0.3918314302745312,0,0,0,1
-0.043749314662659106,0.6560197157682901,-0.3918314302745312,0,0,0,1
-0.6306328746626592,-0.6022671842317099,-0.4398305802745312,0,0,0,1
-0.8351950746626591,-1.4367855842317099,-0.16057697027453122,0,0,0,1
0.4523101053373409,1.12345921576829,0.8322396197254688,0,0,0,1
0.4523101053373409,1.12345921576829,0.8322396197254688,0,0,0,1
1.347833125337341,0.9684936157682902,0.47369643972546877,0,0,0,1
1.347833125337341,0.9684936157682902,0.47369643972546877,0,0,0,1
0.7014565653373409,-0.3063173142317099,-0.8647642402745311,0,0,0,1
-1.449739874662659,-0.33518980423170985,-0.5880356102745312,0,0,0,1
-1.393557974662659,0.2893209957682901,-0.4214140502745312,0,0,0,1
-1.393557974662659,0.2893209957682901,-0.4214140502745312,0,0,0,1
1.308395925337341,-0.04735250423170987,0.25774713972546875,0,0,0,1
1.308395925337341,-0.04735250423170987,0.25774713972546875,0,0,0,1
1.471854725337341,-0.46124338423170985,0.6257259497254688,0,0,0,1
1.471854725337341,-0.46124338423170985,0.6257259497254688,0,0,0,1
0.6735434653373409,-0.12221719023170986,0.6095007197254688,0,0,0,1
-0.5645336746626591,0.012460160768290129,0.22535117972546878,0,0,0,1
-0.5645336746626591,0.012460160768290129,0.22535117972546878,0,0,0,1
-0.2141594746626591,0.25238214576829016,-0.5623129802745311,0,0,0,1
-0.2141594746626591,0.25238214576829016,-0.5623129802745311,0,0,0,1
-0.0077633696626591055,-0.1406050842317099,-0.5760272802745312,0,0,0,1
0.2743468453373409,0.03906613976829013,-0.15811387027453122,0,0,0,1
0.2743468453373409,0.03906613976829013,-0.15811387027453122,0,0,0,1
0.8541064253373409,0.41880491576829015,0.47391244972546875,0,0,0,1
0.2683873253373409,0.7159521757682902,0.49135574972546875,0,0,0,1
-0.4290661746626591,0.7915463157682902,0.44139023972546876,0,0,0,1
-0.3423275746626591,-0.30188284423170986,0.24311336972546876,0,0,0,1
-0.20081852466265912,-1.35763728423171,-0.08464256027453122,0,0,0,1
2.3333097253373407,0.7677600557682901,0.019946066725468774,0,0,0,1
2.3333097253373407,0.7677600557682901,0.019946066725468774,0,0,0,1
2.3333097253373407,0.7677600557682901,0.019946066725468774,0,0,0,1
2.3333097253373407,0.7677600557682901,0.019946066725468774,0,0,0,1
2.0601039253373408,0.8363572157682901,-0.12234285627453123,0,0,0,1
-0.8087620746626591,-0.38369254423170984,-0.13365510027453123,0,0,0,1
-1.209760174662659,-0.8103493842317099,0.16670998972546877,0,0,0,1
-0.018458827162659106,0.1546492157682901,0.24456747972546877,0,0,0,1
-0.018458827162659106,0.1546492157682901,0.24456747972546877,0,0,0,1
1.124861225337341,0.6105529157682902,0.3557802697254688,0,0,0,1
1.124861225337341,0.6105529157682902,0.3557802697254688,0,0,0,1
0.5582461253373409,-0.12134830423170986,-0.27839235027453124,0,0,0,1
0.5582461253373409,-0.12134830423170986,-0.27839235027453124,0,0,0,1
-0.40142773466265913,-0.14872117423170989,-0.3070900802745312,0,0,0,1
-0.40142773466265913,-0.14872117423170989,-0.3070900802745312,0,0,0,1
1.457521925337341,0.29341616576829016,-0.057668717274531225,0,0,0,1
1.457521925337341,0.29341616576829016,-0.057668717274531225,0,0,0,1
-0.0358061646626591,0.30960011576829016,0.3877828397254688,0,0,0,1
-0.0358061646626591,0.30960011576829016,0.3877828397254688,0,0,0,1
-0.0358061646626591,0.30960011576829016,0.3877828397254688,0,0,0,1
0.2819123453373409,1.34147661576829,-0.16682556027453124,0,0,0,1
0.2819123453373409,1.34147661576829,-0.16682556027453124,0,0,0,1
-0.052867394662659106,-1.22229708423171,-0.9166496102745312,0,0,0,1
-0.052867394662659106,-1.22229708423171,-0.9166496102745312,0,0,0,1
-0.3649449146626591,-0.5163775542317098,-0.33878688027453124,0,0,0,1
-0.22482632466265912,0.8744733157682901,0.22941156972546878,0,0,0,1
-0.22482632466265912,0.8744733157682901,0.22941156972546878,0,0,0,1
1.177655725337341,0.21610731576829012,0.7736517197254689,0,0,0,1
0.2416854053373409,-0.9953686842317099,0.4909714697254688,0,0,0,1
0.2416854053373409,-0.9953686842317099,0.4909714697254688,0,0,0,1
-1.072753374662659,0.48228509576829015,0.13031097972546876,0,0,0,1
-1.062641574662659,1.1162035157682901,-0.14567414027453124,0,0,0,1
-0.08685634866265911,0.7549789157682901,-0.6694690302745312,0,0,0,1
1.961764825337341,-0.9638734842317098,-0.9656340202745312,0,0,0,1
1.592459225337341,-0.44996182423170983,-0.5114567802745311,0,0,0,1
1.592459225337341,-0.44996182423170983,-0.5114567802745311,0,0,0,1
0.9036135853373409,0.5475785157682902,0.6005993797254688,0,0,0,1
0.31098415533734086,0.9311102157682901,0.5902126697254688,0,0,0,1
-1.344718474662659,-0.5556302442317098,0.7873439197254688,0,0,0,1
0.6311927253373409,-0.6809858842317098,0.5915360697254688,0,0,0,1
1.008258325337341,0.44240321576829017,0.25790271972546874,0,0,0,1
1.008258325337341,0.44240321576829017,0.25790271972546874,0,0,0,1
0.6197715253373409,0.9755441757682901,-0.3219825302745312,0,0,0,1
0.3687873053373409,0.7015118157682901,-0.47149995027453123,0,0,0,1
-0.16174362466265912,0.19445719576829013,-0.8364203302745312,0,0,0,1
1.230846925337341,0.41450979576829017,0.23855491972546877,0,0,0,1
0.7633862653373409,0.41393287576829013,0.46020539972546876,0,0,0,1
0.7633862653373409,0.41393287576829013,0.46020539972546876,0,0,0,1
0.6244559253373408,-0.26051185423170986,0.7199628197254688,0,0,0,1
0.6244559253373408,-0.26051185423170986,0.7199628197254688,0,0,0,1
-0.9666428446626592,0.26522031576829014,-0.13355723027453123,0,0,0,1
0.7995343253373409,0.5220141557682901,-0.9130844202745312,0,0,0,1
0.7995343253373409,0.5220141557682901,-0.9130844202745312,0,0,0,1
-0.2191843846626591,-0.6355138842317098,-0.9421607802745312,0,0,0,1
0.3045840453373409,-0.6942510442317098,-0.5068264302745312,0,0,0,1
0.5299391953373409,-0.1730258842317099,0.055738179725468774,0,0,0,1
-0.1538376646626591,0.8672173757682902,0.9366091197254688,0,0,0,1
-0.3300289946626591,0.6177638157682901,1.080785019725469,0,0,0,1
-0.42107151466265913,0.32511596576829016,0.9311351197254688,0,0,0,1
-0.11172531466265911,-0.11008396423170987,0.2758960397254688,0,0,0,1
-0.11172531466265911,-0.11008396423170987,0.2758960397254688,0,0,0,1
0.3349652453373409,0.9848754557682902,-0.8493288802745311,0,0,0,1
0.3349652453373409,0.9848754557682902,-0.8493288802745311,0,0,0,1
-0.6725640146626591,0.9820574657682901,-0.9326952802745312,0,0,0,1
-0.7927965746626591,0.11084802576829013,-0.7366004302745311,0,0,0,1
-0.7927965746626591,0.11084802576829013,-0.7366004302745311,0,0,0,1
0.8283972853373409,0.06763466076829013,0.9264133897254688,0,0,0,1
-0.15101860466265912,-0.18313751423170987,0.7422342597254689,0,0,0,1
-0.4772429346626591,-0.2190184142317099,0.6271655797254688,0,0,0,1
-0.4772429346626591,-0.2190184142317099,0.6271655797254688,0,0,0,1
0.3920941553373409,0.9501982157682901,-0.6054355202745312,0,0,0,1
0.3920941553373409,0.9501982157682901,-0.6054355202745312,0,0,0,1
-0.023467524662659105,0.28635807576829014,-0.6931947802745312,0,0,0,1
0.24586536533734088,-0.29903854423170984,-0.10001031027453124,0,0,0,1
1.204244125337341,0.31402441576829015,0.20219596972546877,0,0,0,1
1.601217725337341,0.7791714157682902,0.5165217797254689,0,0,0,1
1.601217725337341,0.7791714157682902,0.5165217797254689,0,0,0,1
1.012463125337341,0.6077912657682901,0.45205929972546877,0,0,0,1
0.023967282337340894,0.12883790576829013,0.5926983597254688,0,0,0,1
0.2081189253373409,0.19238563576829013,-0.29677394027453124,0,0,0,1
1.226859625337341,0.29415411576829015,-0.45141354027453123,0,0,0,1
1.226859625337341,0.29415411576829015,-0.45141354027453123,0,0,0,1
1.226859625337341,0.29415411576829015,-0.45141354027453123,0,0,0,1
1.376893525337341,0.4020527757682901,-0.4373876202745312,0,0,0,1
0.49725295533734093,0.5807144857682901,-0.43331435027453125,0,0,0,1
-0.5087399346626591,0.14245547576829012,-0.3641347002745312,0,0,0,1
-0.036135180662659104,-0.018164735231709875,-0.23355189027453124,0,0,0,1
-0.5087399346626591,0.14245547576829012,-0.3641347002745312,0,0,0,1
0.5309872753373409,0.07501365576829012,-0.026781590274531225,0,0,0,1
0.7048258953373409,-0.03957281623170987,0.10233517972546877,0,0,0,1
0.7048258953373409,-0.03957281623170987,0.10233517972546877,0,0,0,1
0.16194869533734088,0.1480370957682901,0.35154213972546877,0,0,0,1
-0.1434168646626591,0.41876657576829013,-0.3470298402745312,0,0,0,1
-0.1434168646626591,0.41876657576829013,-0.3470298402745312,0,0,0,1
-0.1434168646626591,0.41876657576829013,-0.3470298402745312,0,0,0,1
-0.3683352346626591,0.11210681576829012,-0.4095372302745312,0,0,0,1
-0.15614460466265911,0.1689045657682901,-0.6852330302745312,0,0,0,1
0.5380168253373409,0.4595171357682901,-0.4091885402745312,0,0,0,1
0.9175524853373409,0.2640866157682901,-0.49431530027453124,0,0,0,1
0.8044600653373409,-0.31341574423170987,-0.07315710027453123,0,0,0,1
0.3576312253373409,-0.46650498423170983,0.34951128972546874,0,0,0,1
-0.03346012466265911,-0.16308839423170987,0.7438779797254689,0,0,0,1
-0.03346012466265911,-0.16308839423170987,0.7438779797254689,0,0,0,1
-0.03146217666265911,-0.39087838423170984,0.5393891197254689,0,0,0,1
-0.03146217666265911,-0.39087838423170984,0.5393891197254689,0,0,0,1
0.4717621953373409,-0.7720316442317099,0.19984086972546877,0,0,0,1
0.3509984253373409,0.3591792757682901,-0.15938690027453123,0,0,0,1
0.3509984253373409,0.3591792757682901,-0.15938690027453123,0,0,0,1
-0.24743793466265912,1.0849550157682901,-0.3611568502745312,0,0,0,1
-0.24743793466265912,1.0849550157682901,-0.3611568502745312,0,0,0,1
0.20883704533734088,0.37855734576829014,-0.5692583802745311,0,0,0,1
0.4234347553373409,-0.18159938423170988,-0.5345065802745311,0,0,0,1
0.4234347553373409,-0.18159938423170988,-0.5345065802745311,0,0,0,1
0.6872267853373409,-0.6160785342317099,-0.31814721027453124,0,0,0,1
0.6872267853373409,-0.6160785342317099,-0.31814721027453124,0,0,0,1
0.2785115353373409,0.32002099576829013,0.6236710197254688,0,0,0,1
-0.052203639662659104,0.8347577157682902,0.8332792197254688,0,0,0,1
0.25834800533734087,0.49459137576829015,0.6392864897254689,0,0,0,1
0.3136706553373409,-0.33369220423170987,0.3817269497254688,0,0,0,1
0.3136706553373409,-0.33369220423170987,0.3817269497254688,0,0,0,1
0.16325713533734088,-0.2084645742317099,-0.6531193802745312,0,0,0,1
0.1488747753373409,0.4035728157682901,-0.7333219402745311,0,0,0,1
-0.5482373046626591,0.43200451576829013,-0.9324250802745312,0,0,0,1
-0.5482373046626591,0.43200451576829013,-0.9324250802745312,0,0,0,1
-0.9014210746626591,-0.19902832423170988,-0.7660571802745312,0,0,0,1
-0.3783278346626591,-0.5617089842317099,-0.46148388027453124,0,0,0,1
1.110638125337341,0.7962782557682901,0.2557171197254688,0,0,0,1
0.9012198653373409,-0.13512836423170987,0.4394262697254688,0,0,0,1
-0.5784058446626591,-0.9645415842317099,0.23509296972546878,0,0,0,1
-1.790378074662659,-0.9432807842317098,0.04577204472546878,0,0,0,1
-1.823901174662659,-0.5066470342317099,-0.059580120274531224,0,0,0,1
-0.6341604746626591,0.09086443576829013,0.02516647972546877,0,0,0,1
0.7853017253373409,0.45145537576829015,-0.24266961027453124,0,0,0,1
0.7853017253373409,0.45145537576829015,-0.24266961027453124,0,0,0,1
1.866652025337341,0.43619819576829016,-0.32766000027453124,0,0,0,1
2.0247387253373406,0.1928872057682901,-0.37577990027453123,0,0,0,1
1.219241625337341,0.2313139057682901,-0.19503108027453123,0,0,0,1
-1.092311374662659,0.46837587576829015,0.001628963725468775,0,0,0,1
-1.446344874662659,-0.22106365423170987,0.16443582972546877,0,0,0,1
-1.164909774662659,-0.9754504842317099,0.47504963972546876,0,0,0,1
-1.164909774662659,-0.9754504842317099,0.47504963972546876,0,0,0,1
1.744695225337341,0.6882974657682901,0.7938519197254689,0,0,0,1
1.744695225337341,0.6882974657682901,0.7938519197254689,0,0,0,1
1.568327425337341,0.8357557857682901,0.16701265972546878,0,0,0,1
1.568327425337341,0.8357557857682901,0.16701265972546878,0,0,0,1
0.7147669953373409,0.06984706576829013,-0.22028676027453123,0,0,0,1
-0.026531680662659103,0.6898503457682902,-0.009005458674531225,0,0,0,1
1.798861025337341,0.6275747557682901,0.28586908972546876,0,0,0,1
1.798861025337341,0.6275747557682901,0.28586908972546876,0,0,0,1
1.798861025337341,0.6275747557682901,0.28586908972546876,0,0,0,1
1.415752925337341,-0.26218624423170983,0.23286267972546876,0,0,0,1
0.14186908533734088,-0.8052710842317099,0.5027121197254688,0,0,0,1
0.14186908533734088,-0.8052710842317099,0.5027121197254688,0,0,0,1
-1.331205874662659,0.5030561157682901,0.21574636972546876,0,0,0,1
1.290641325337341,-0.8122082142317099,-0.6722420802745311,0,0,0,1
0.3439231053373409,0.34527875576829015,0.13230821972546877,0,0,0,1
-0.07922504466265912,1.01483711576829,0.4130432897254688,0,0,0,1
-0.07922504466265912,1.01483711576829,0.4130432897254688,0,0,0,1
-0.19411133466265912,0.7525219157682902,0.10873242972546877,0,0,0,1
-0.19411133466265912,0.7525219157682902,0.10873242972546877,0,0,0,1
0.047066227337340893,-1.00886578423171,-0.018952282274531225,0,0,0,1
0.047066227337340893,-1.00886578423171,-0.018952282274531225,0,0,0,1
-0.18298481466265912,0.01727195426829013,0.06748708972546877,0,0,0,1
-0.18298481466265912,0.01727195426829013,0.06748708972546877,0,0,0,1
-0.18298481466265912,0.01727195426829013,0.06748708972546877,0,0,0,1
1.317787625337341,0.9584630157682902,-0.26659325027453123,0,0,0,1
0.38741256533734086,-0.7985669142317099,-0.5525156802745311,0,0,0,1
0.38741256533734086,-0.7985669142317099,-0.5525156802745311,0,0,0,1
0.38741256533734086,-0.7985669142317099,-0.5525156802745311,0,0,0,1
0.9180445853373409,0.17719246576829012,0.37282987972546877,0,0,0,1
0.9180445853373409,0.17719246576829012,0.37282987972546877,0,0,0,1
0.9180445853373409,0.17719246576829012,0.37282987972546877,0,0,0,1
0.7744050253373409,-0.7154194842317099,0.15305670972546878,0,0,0,1
0.2095017553373409,0.03149046376829013,0.12289365972546876,0,0,0,1
-0.08225677466265911,0.5522138157682901,-0.4753376602745312,0,0,0,1
-0.08225677466265911,0.5522138157682901,-0.4753376602745312,0,0,0,1
0.0717473193373409,-0.5892308842317099,-0.44626215027453126,0,0,0,1
-0.3803458046626591,-1.08689518423171,-0.6394722802745312,0,0,0,1
-0.3803458046626591,-1.08689518423171,-0.6394722802745312,0,0,0,1
0.8352742253373409,-0.03673265423170987,0.07412978972546877,0,0,0,1
1.032712525337341,0.6548456757682901,0.5229085197254688,0,0,0,1
-0.6731047746626592,-1.09300758423171,-0.047722490274531223,0,0,0,1
-0.6731047746626592,-1.09300758423171,-0.047722490274531223,0,0,0,1
-0.45642803466265913,-0.36910901423170983,-0.21080974027453123,0,0,0,1
-0.45642803466265913,-0.36910901423170983,-0.21080974027453123,0,0,0,1
1.199761925337341,-0.24527571423170988,-0.019286664274531226,0,0,0,1
1.784953625337341,-0.1416443742317099,0.09428795972546877,0,0,0,1
0.5446105253373409,0.08963723576829014,-0.13457516027453123,0,0,0,1
-0.14369629466265912,0.09816916576829013,-0.14111999027453123,0,0,0,1
0.030325428337340893,-0.024654966231709874,0.14884813972546876,0,0,0,1
-0.44843624466265913,0.5287488157682901,0.10103567972546877,0,0,0,1
-0.8480276746626592,0.8949038557682901,-0.15468350027453123,0,0,0,1
0.23975040533734088,0.14943583576829012,-0.22855988027453122,0,0,0,1
0.23975040533734088,0.14943583576829012,-0.22855988027453122,0,0,0,1
-0.1517834546626591,-0.8675003842317098,-0.21755448027453123,0,0,0,1
0.25846149533734086,-0.1988626242317099,0.26304265972546875,0,0,0,1
0.25846149533734086,-0.1988626242317099,0.26304265972546875,0,0,0,1
-0.033194048662659105,0.05476640576829013,0.18926021972546878,0,0,0,1
-0.04539726466265911,-0.7107421842317099,0.12058421972546876,0,0,0,1
-0.04539726466265911,-0.7107421842317099,0.12058421972546876,0,0,0,1
-0.41444347466265913,0.6225891157682901,-0.24004856027453123,0,0,0,1
-0.41444347466265913,0.6225891157682901,-0.24004856027453123,0,0,0,1
-0.41444347466265913,0.6225891157682901,-0.24004856027453123,0,0,0,1
0.5895610253373409,0.5641272157682902,-0.22036460027453122,0,0,0,1
1.159223125337341,0.04219447576829013,-0.27577284027453125,0,0,0,1
0.30138732533734086,-0.006953280731709871,-0.6547183102745312,0,0,0,1
-0.034554942662659106,-0.0034589882317098714,-0.5531621302745312,0,0,0,1
0.6739459253373409,-0.07881761423170987,-0.18975666027453122,0,0,0,1
0.1346697953373409,0.5534597157682901,0.17609759972546876,0,0,0,1
0.15091945533734089,-0.2016151542317099,0.23610874972546878,0,0,0,1
-0.7636256046626592,-1.18022988423171,0.37307951972546877,0,0,0,1
-0.7636256046626592,-1.18022988423171,0.37307951972546877,0,0,0,1
-0.7646212446626591,-1.17438268423171,0.3672924897254688,0,0,0,1
0.5327820953373409,0.09337668576829013,-0.7381950802745312,0,0,0,1
0.5327820953373409,0.09337668576829013,-0.7381950802745312,0,0,0,1
0.22240402533734088,-0.5505013242317098,-0.9205689802745312,0,0,0,1
0.021879689337340896,-0.8471553142317099,-0.7193317802745312,0,0,0,1
-0.2413143946626591,-0.36809251423170986,-0.30232921027453125,0,0,0,1
0.5819773853373409,0.8189437557682901,0.4956896597254688,0,0,0,1
0.5819773853373409,0.8189437557682901,0.4956896597254688,0,0,0,1
0.5469317553373408,-0.33559195423170984,0.5648219897254688,0,0,0,1
-0.11348007466265911,-0.4588950842317099,0.41258151972546875,0,0,0,1
-0.2317643046626591,-0.06135560423170987,0.2567166997254688,0,0,0,1
-0.2317643046626591,-0.06135560423170987,0.2567166997254688,0,0,0,1
-0.04681156466265911,0.5137900157682902,-0.09250918027453123,0,0,0,1
0.3461785453373409,0.5631163157682901,-0.4887997202745312,0,0,0,1
0.3461785453373409,0.5631163157682901,-0.4887997202745312,0,0,0,1
0.9706559253373409,-0.3240920842317099,-0.6436732102745312,0,0,0,1
0.9706559253373409,-0.3240920842317099,-0.6436732102745312,0,0,0,1
0.3745694253373409,-0.6336431342317098,-0.23919574027453122,0,0,0,1
0.3745694253373409,-0.6336431342317098,-0.23919574027453122,0,0,0,1
0.1813054253373409,-0.5837746842317099,0.49356171972546875,0,0,0,1
-0.23156593466265912,-0.32995305423170984,0.6752214697254688,0,0,0,1
-0.23156593466265912,-0.32995305423170984,0.6752214697254688,0,0,0,1
0.6090579253373409,-0.40913940423170986,0.7232957797254689,0,0,0,1
0.9728741853373409,-0.5548653842317098,0.3971699197254688,0,0,0,1
0.7711434253373409,-0.17782421423170988,-0.31752172027453124,0,0,0,1
0.7711434253373409,-0.17782421423170988,-0.31752172027453124,0,0,0,1
-0.8802370746626591,0.1661829857682901,-0.9663126802745312,0,0,0,1
-0.6969151346626591,-0.08139739423170987,-1.0299404802745311,0,0,0,1
1.403891125337341,-0.32119868423170983,-0.46256498027453125,0,0,0,1
1.403891125337341,-0.32119868423170983,-0.46256498027453125,0,0,0,1
-0.9668535746626591,-0.8203347842317098,0.3324169197254688,0,0,0,1
0.3363127853373409,-0.8749756842317099,-0.15855423027453122,0,0,0,1
0.4706206453373409,0.36156498576829016,-0.3635454502745312,0,0,0,1
-0.4632773246626591,0.10804380576829013,-0.27050368027453126,0,0,0,1
-0.4632773246626591,0.10804380576829013,-0.27050368027453126,0,0,0,1
-0.4632773246626591,0.10804380576829013,-0.27050368027453126,0,0,0,1
0.04066039733734089,-0.20489255423170988,-0.018344433274531224,0,0,0,1
0.7419152253373409,-0.48486654423170983,0.3818010997254688,0,0,0,1
0.6740575253373409,-0.25422298423170986,0.7299406197254689,0,0,0,1
-0.0964999046626591,-0.5424524842317099,0.9838659197254688,0,0,0,1
-0.22048233466265912,-0.9194804842317098,0.8051908897254688,0,0,0,1
-0.22048233466265912,-0.9194804842317098,0.8051908897254688,0,0,0,1
-0.035306437662659104,-0.6752611242317098,0.6683850197254688,0,0,0,1
0.5266194253373409,-0.11994807423170988,0.30888959972546876,0,0,0,1
