acc_x,acc_y,acc_z,gyro_x,gyro_y,gyro_z,label
-1.129043074662659,0.7671165157682901,0.6739729197254688,0,0,0,1
0.6408314853373409,1.00617721576829,0.5159761197254689,0,0,0,1
-0.1157412346626591,-0.6642864142317099,-0.8255180402745311,0,0,0,1
-0.1157412346626591,-0.6642864142317099,-0.8255180402745311,0,0,0,1
-0.1157412346626591,-0.6642864142317099,-0.8255180402745311,0,0,0,1
-2.3370432746626593,-0.6848060342317098,-0.47242704027453125,0,0,0,1
-2.9408120746626594,0.015580642768290128,1.5452074197254688,0,0,0,1
-1.350735174662659,0.34719218576829014,2.0525104197254684,0,0,0,1
1.090748325337341,0.44519401576829015,1.1566583197254687,0,0,0,1
3.465300125337341,-0.3772797842317099,0.06370987972546877,0,0,0,1
3.465300125337341,-0.3772797842317099,0.06370987972546877,0,0,0,1
2.1985373253373406,-0.4544801842317099,-1.7812206802745312,0,0,0,1
2.1985373253373406,-0.4544801842317099,-1.7812206802745312,0,0,0,1
-0.9506802446626591,0.03159828876829013,-1.6628309802745311,0,0,0,1
-2.812738374662659,0.48314291576829016,-0.9146611402745312,0,0,0,1
-3.069086074662659,0.7117027157682901,0.009916914725468774,0,0,0,1
-2.0873802746626593,0.8332218157682901,0.7953974197254688,0,0,0,1
-0.7714094746626591,0.11397992576829014,1.1870878197254688,0,0,0,1
1.371951625337341,-0.5449889842317098,0.7577624597254689,0,0,0,1
3.0220590253373407,-0.6012161842317099,0.11736665972546878,0,0,0,1
3.4196095253373406,-0.10676593423170987,-0.7515222102745311,0,0,0,1
2.059360025337341,0.36603893576829016,-1.713444280274531,0,0,0,1
-0.43484067466265913,-0.010925662231709871,-1.612085180274531,0,0,0,1
-2.8691292746626593,-0.23561881423170988,-1.373378180274531,0,0,0,1
-2.8691292746626593,-0.23561881423170988,-1.373378180274531,0,0,0,1
-3.5516700746626593,-0.11158065423170987,-0.6041081302745311,0,0,0,1
2.581767525337341,0.8059846157682902,0.6701928197254688,0,0,0,1
3.684960825337341,0.14682655576829012,0.03574927772546878,0,0,0,1
2.909694225337341,-0.2893769842317099,-1.4555501802745312,0,0,0,1
0.7620692253373409,-0.5945739842317098,-1.6479281802745311,0,0,0,1
0.7620692253373409,-0.5945739842317098,-1.6479281802745311,0,0,0,1
0.7620692253373409,-0.5945739842317098,-1.6479281802745311,0,0,0,1
-3.539293774662659,0.1576863857682901,-0.9391226802745312,0,0,0,1
-0.3076367246626591,0.8629795457682902,0.7078004197254688,0,0,0,1
-0.3076367246626591,0.8629795457682902,0.7078004197254688,0,0,0,1
1.772433725337341,0.3075066357682901,0.5366033197254688,0,0,0,1
1.772433725337341,0.3075066357682901,0.5366033197254688,0,0,0,1
2.091311025337341,-1.17739958423171,-1.0392239802745311,0,0,0,1
1.083043625337341,-1.22119238423171,-1.1868320802745311,0,0,0,1
1.083043625337341,-1.22119238423171,-1.1868320802745311,0,0,0,1
-1.025687674662659,-0.24178550423170989,-0.5826819302745312,0,0,0,1
-2.8865712746626593,1.3494513157682901,-0.6912510102745312,0,0,0,1
-0.010534747262659107,0.33231901576829015,-0.14172618027453124,0,0,0,1
-0.010534747262659107,0.33231901576829015,-0.14172618027453124,0,0,0,1
1.543885725337341,-0.17557115423170988,-0.6281758302745312,0,0,0,1
1.866098925337341,-0.1861644842317099,-1.169223380274531,0,0,0,1
1.866098925337341,-0.1861644842317099,-1.169223380274531,0,0,0,1
-2.0328945746626594,0.2464442857682901,-0.003802971574531225,0,0,0,1
-2.0328945746626594,0.2464442857682901,-0.003802971574531225,0,0,0,1
-2.0328945746626594,0.2464442857682901,-0.003802971574531225,0,0,0,1
-2.303537874662659,0.17071332576829013,-0.06210320027453122,0,0,0,1
-0.2596087246626591,0.02639399776829013,-0.17431094027453123,0,0,0,1
1.245651725337341,-0.36742205423170987,-0.7947411802745312,0,0,0,1
1.245651725337341,-0.36742205423170987,-0.7947411802745312,0,0,0,1
0.49840402533734085,-0.21909643423170988,-0.3800562302745312,0,0,0,1
-0.6465620746626591,0.9458872157682902,-0.16698396027453122,0,0,0,1
0.3975396253373409,0.7535527157682902,-0.46604698027453123,0,0,0,1
0.5212798253373409,-0.8880066842317098,-0.5847125402745311,0,0,0,1
0.5212798253373409,-0.8880066842317098,-0.5847125402745311,0,0,0,1
0.5212798253373409,-0.8880066842317098,-0.5847125402745311,0,0,0,1
0.5212798253373409,-0.8880066842317098,-0.5847125402745311,0,0,0,1
0.5212798253373409,-0.8880066842317098,-0.5847125402745311,0,0,0,1
0.2257008753373409,0.26925756576829013,-0.5645768802745311,0,0,0,1
-0.1956896646626591,0.9251940157682902,-0.7545798802745312,0,0,0,1
-0.8434691246626591,0.12437914576829014,-0.18721251027453123,0,0,0,1
-1.197711474662659,-0.7790990842317098,-0.10407303427453123,0,0,0,1
-1.197711474662659,-0.7790990842317098,-0.10407303427453123,0,0,0,1
-0.8718294746626591,-0.31194890423170984,0.16343867972546877,0,0,0,1
0.4669613953373409,0.8643596157682901,0.13952821972546878,0,0,0,1
0.8984227253373409,-0.5352049842317098,-0.5807523802745311,0,0,0,1
0.8984227253373409,-0.5352049842317098,-0.5807523802745311,0,0,0,1
-1.180198174662659,0.43105586576829014,-0.5761100802745311,0,0,0,1
-1.180198174662659,0.43105586576829014,-0.5761100802745311,0,0,0,1
-1.697615174662659,1.66670321576829,-0.029800744274531225,0,0,0,1
-1.697615174662659,1.66670321576829,-0.029800744274531225,0,0,0,1
0.2963938853373409,-0.09362266423170987,-0.5992478402745312,0,0,0,1
0.3846154253373409,-1.54647758423171,-1.0842127802745312,0,0,0,1
0.48638392533734087,-2.29234738423171,-0.5462188402745312,0,0,0,1
0.5390906253373409,-1.15239728423171,-0.058247687274531224,0,0,0,1
0.8051257253373408,1.50282121576829,0.4775344397254688,0,0,0,1
0.8051257253373408,1.50282121576829,0.4775344397254688,0,0,0,1
0.8206105253373409,2.0734859157682903,0.24663659972546875,0,0,0,1
0.8206105253373409,2.0734859157682903,0.24663659972546875,0,0,0,1
0.9893098253373409,0.6836684157682902,-0.6263889402745312,0,0,0,1
-1.676659074662659,-0.44084946423170984,-0.23513219027453122,0,0,0,1
-1.676659074662659,-0.44084946423170984,-0.23513219027453122,0,0,0,1
0.4261813253373409,0.9005418157682902,0.32574226972546877,0,0,0,1
0.4261813253373409,0.9005418157682902,0.32574226972546877,0,0,0,1
0.4261813253373409,0.9005418157682902,0.32574226972546877,0,0,0,1
1.150632425337341,1.47870031576829,0.6343692797254689,0,0,0,1
0.9384789653373409,1.2315332157682901,-0.06358495527453123,0,0,0,1
0.1825471053373409,-0.9483883242317098,-0.9263983802745311,0,0,0,1
-1.142608174662659,-0.7562013842317099,-1.026365580274531,0,0,0,1
-1.142608174662659,-0.7562013842317099,-1.026365580274531,0,0,0,1
0.0953250093373409,0.3220936857682901,-0.09794372427453123,0,0,0,1
0.0953250093373409,0.3220936857682901,-0.09794372427453123,0,0,0,1
1.009287325337341,1.28423051576829,0.04978072472546878,0,0,0,1
1.009287325337341,1.28423051576829,0.04978072472546878,0,0,0,1
0.8047385253373409,0.3831236157682901,-0.053728760274531225,0,0,0,1
0.0792031453373409,-0.5279940142317099,-0.15087044027453123,0,0,0,1
-0.9143757746626591,-1.19071968423171,-0.45933434027453124,0,0,0,1
-0.45283363466265913,-1.27844148423171,-0.17101422027453123,0,0,0,1
0.8935103553373409,-0.27791572423170985,0.21641153972546878,0,0,0,1
0.8935103553373409,-0.27791572423170985,0.21641153972546878,0,0,0,1
0.8935103553373409,-0.27791572423170985,0.21641153972546878,0,0,0,1
1.163064525337341,0.9249728157682902,0.5566430197254688,0,0,0,1
0.9149670753373409,0.6714560157682902,-0.19803786027453124,0,0,0,1
0.9149670753373409,0.6714560157682902,-0.19803786027453124,0,0,0,1
0.9149670753373409,0.6714560157682902,-0.19803786027453124,0,0,0,1
0.8283019253373409,-0.6227959242317098,0.30470355972546875,0,0,0,1
0.9401059253373409,2.8164369157682905,0.02945923672546877,0,0,0,1
1.969686025337341,1.95218711576829,0.8917687197254688,0,0,0,1
0.9401059253373409,2.8164369157682905,0.02945923672546877,0,0,0,1
0.9401059253373409,2.8164369157682905,0.02945923672546877,0,0,0,1
0.9401059253373409,2.8164369157682905,0.02945923672546877,0,0,0,1
-1.605558874662659,-2.2078408842317097,-1.6861412802745313,0,0,0,1
0.6536088253373409,-0.3461784842317099,-0.13400170027453123,0,0,0,1
0.6536088253373409,-0.3461784842317099,-0.13400170027453123,0,0,0,1
1.266953025337341,1.33705081576829,0.7710492197254688,0,0,0,1
0.7460789853373408,1.8050722157682901,0.6810713697254688,0,0,0,1
0.2381358253373409,0.17366983576829012,-0.3128765502745312,0,0,0,1
-0.0376896696626591,-1.46758258423171,-0.6027888802745311,0,0,0,1
-0.7082752746626592,-1.53472168423171,-0.6572393802745312,0,0,0,1
1.458395525337341,0.8543304157682902,-0.3918717202745312,0,0,0,1
1.458395525337341,0.8543304157682902,-0.3918717202745312,0,0,0,1
-0.6700682746626591,-0.39937142423170985,0.03821772172546878,0,0,0,1
-0.6700682746626591,-0.39937142423170985,0.03821772172546878,0,0,0,1
-0.6700682746626591,-0.39937142423170985,0.03821772172546878,0,0,0,1
-1.525567474662659,-0.6407435842317099,0.7199397197254688,0,0,0,1
1.017413625337341,1.01129961576829,0.8496750197254688,0,0,0,1
0.9855075253373409,0.8005254157682902,-0.4441654102745312,0,0,0,1
0.9855075253373409,0.8005254157682902,-0.4441654102745312,0,0,0,1
1.704100125337341,0.03514896576829013,-1.2269004802745311,0,0,0,1
1.581594025337341,-0.9818353442317098,-1.241295480274531,0,0,0,1
1.581594025337341,-0.9818353442317098,-1.241295480274531,0,0,0,1
-0.6518511746626591,-0.8227105842317098,-1.2964158802745311,0,0,0,1
-0.6518511746626591,-0.8227105842317098,-1.2964158802745311,0,0,0,1
-1.935620274662659,0.37774221576829015,-0.3880940102745312,0,0,0,1
1.223169825337341,0.7394920157682902,1.0217132197254688,0,0,0,1
0.2931332753373409,0.5606891157682902,0.43486257972546877,0,0,0,1
-0.501995544662659,-0.08376471423170986,0.09388055972546877,0,0,0,1
-0.501995544662659,-0.08376471423170986,0.09388055972546877,0,0,0,1
-0.501995544662659,-0.08376471423170986,0.09388055972546877,0,0,0,1
-0.2998995746626591,-0.7407588842317099,-0.06371528027453123,0,0,0,1
-1.258511074662659,0.14876835576829012,-0.8022230802745312,0,0,0,1
-1.258511074662659,0.14876835576829012,-0.8022230802745312,0,0,0,1
-0.039965136662659106,-0.2870690342317099,-0.8821599802745311,0,0,0,1
1.309874025337341,-0.07007051423170987,-0.9154029202745312,0,0,0,1
1.309874025337341,-0.07007051423170987,-0.9154029202745312,0,0,0,1
1.713136225337341,0.44550524576829015,-0.7435855802745311,0,0,0,1
-0.2254090146626591,1.00777721576829,-0.26472888027453123,0,0,0,1
-2.260746974662659,0.25790293576829015,-0.5336668802745311,0,0,0,1
-2.260746974662659,0.25790293576829015,-0.39302561027453126,0,0,0,1
-1.942790474662659,-1.35762258423171,-0.39302561027453126,0,0,0,1
-0.3019299346626591,-1.95204418423171,-0.16897193027453122,0,0,0,1
0.5798497253373409,-0.22842655423170988,-0.15282098027453123,0,0,0,1
0.9986329253373408,2.2035019157682902,-0.22728208027453123,0,0,0,1
0.9047818253373409,2.5326119157682903,-0.11218503027453124,0,0,0,1
0.26214648533734086,1.39135551576829,-0.09307054027453122,0,0,0,1
0.26214648533734086,1.39135551576829,-0.09307054027453122,0,0,0,1
0.2074361053373409,-1.56374928423171,-1.0408985802745312,0,0,0,1
0.2074361053373409,-1.56374928423171,-1.0408985802745312,0,0,0,1
0.2074361053373409,-1.56374928423171,-1.0408985802745312,0,0,0,1
1.835059625337341,-2.0054249842317096,-0.8787265102745312,0,0,0,1
0.4506201953373409,-0.9428841242317099,0.08737304972546878,0,0,0,1
-1.595200974662659,0.5220250157682902,0.7050940697254688,0,0,0,1
-2.193921074662659,0.7906446657682902,0.49797924972546875,0,0,0,1
-0.6530642346626591,0.41335334576829014,-0.41099498027453124,0,0,0,1
1.417509525337341,-0.009798717231709872,-0.8370815802745312,0,0,0,1
3.072457725337341,-0.4136834542317099,-1.0967397802745311,0,0,0,1
3.072457725337341,-0.4136834542317099,-1.0967397802745311,0,0,0,1
3.3856273253373406,-0.4288918842317099,-1.2497768802745313,0,0,0,1
2.4789596253373407,0.2668625157682901,-1.4220530802745313,0,0,0,1
0.2959084653373409,0.8897892157682902,-1.0780062802745312,0,0,0,1
-2.229134974662659,1.21329111576829,-0.10272160027453123,0,0,0,1
-3.5935325746626594,0.03533046276829013,1.4799035197254689,0,0,0,1
-1.719919674662659,-0.7021557842317099,1.0687069197254688,0,0,0,1
-1.719919674662659,-0.7021557842317099,1.0687069197254688,0,0,0,1
1.689839825337341,-0.9005633442317098,-0.27402744027453124,0,0,0,1
4.463159125337341,-1.39373848423171,-1.3666334802745312,0,0,0,1
4.463159125337341,-1.39373848423171,-1.3666334802745312,0,0,0,1
2.470994525337341,-0.8363878542317098,-2.0819997802745314,0,0,0,1
2.470994525337341,-0.8363878542317098,-2.0819997802745314,0,0,0,1
-2.0483879746626594,0.49505166576829013,-0.43015680027453124,0,0,0,1
-2.0483879746626594,0.49505166576829013,-0.43015680027453124,0,0,0,1
-3.4066776746626592,1.04805611576829,0.2834117697254688,0,0,0,1
-3.4066776746626592,1.04805611576829,0.2834117697254688,0,0,0,1
1.847365825337341,0.5792854157682902,0.6209229197254689,0,0,0,1
1.650478825337341,0.5988712457682901,-0.49840728027453124,0,0,0,1
1.466902225337341,-0.37879775423170986,-1.4037908802745311,0,0,0,1
0.6790137253373408,-0.8237238842317098,-1.1365094802745312,0,0,0,1
0.6790137253373408,-0.8237238842317098,-1.1365094802745312,0,0,0,1
-2.480645674662659,0.45931519576829016,-0.6533926802745311,0,0,0,1
3.1081195253373406,0.12707001576829013,-0.3827327802745312,0,0,0,1
3.1081195253373406,0.12707001576829013,-0.3827327802745312,0,0,0,1
3.1081195253373406,0.12707001576829013,-0.3827327802745312,0,0,0,1
2.8373284253373408,0.7151975157682902,-0.11729082627453123,0,0,0,1
-0.7534069746626592,-0.41894654423170985,0.020943908725468773,0,0,0,1
-0.7534069746626592,-0.41894654423170985,0.020943908725468773,0,0,0,1
-1.930585874662659,-0.7616437842317099,0.22457378972546876,0,0,0,1
-1.930585874662659,-0.7616437842317099,0.22457378972546876,0,0,0,1
-2.562530474662659,-0.12996209423170987,-0.11451319027453123,0,0,0,1
-2.562530474662659,-0.12996209423170987,-0.11451319027453123,0,0,0,1
-2.562530474662659,-0.12996209423170987,-0.11451319027453123,0,0,0,1
2.340214225337341,-0.31667650423170984,-0.8843600502745311,0,0,0,1
2.965882725337341,0.11802099976829013,-0.7945401802745312,0,0,0,1
0.8112378253373409,1.07643701576829,-1.2410171802745311,0,0,0,1
-2.0678482746626594,1.08217851576829,-0.24269530027453123,0,0,0,1
-2.086935074662659,0.5194291657682901,0.5514747197254688,0,0,0,1
-2.086935074662659,0.5194291657682901,0.5514747197254688,0,0,0,1
-2.086935074662659,0.5194291657682901,0.5514747197254688,0,0,0,1
0.2654566953373409,-0.008458983231709872,0.4419394197254688,0,0,0,1
0.2654566953373409,-0.008458983231709872,0.4419394197254688,0,0,0,1
0.2654566953373409,-0.008458983231709872,0.4419394197254688,0,0,0,1
2.812016025337341,-0.6525716842317099,0.03976198972546878,0,0,0,1
2.812016025337341,-0.6525716842317099,0.03976198972546878,0,0,0,1
3.6705003253373407,-1.14329228423171,-0.36839852027453124,0,0,0,1
3.6705003253373407,-1.14329228423171,-0.36839852027453124,0,0,0,1
