acc_x,acc_y,acc_z,gyro_x,gyro_y,gyro_z,label
1.110355825337341,0.010906788768290128,-0.30747321027453123,0,0,0,1
-0.6426367746626591,-0.1562831242317099,0.36615904972546875,0,0,0,1
-0.6438917746626591,-0.1557105742317099,0.35887141972546877,0,0,0,1
-0.5377754746626591,-0.014273819231709872,0.029412476725468772,0,0,0,1
-0.5377754746626591,-0.014273819231709872,0.029412476725468772,0,0,0,1
-0.5377754746626591,-0.014273819231709872,0.029412476725468772,0,0,0,1
1.309345725337341,-0.2845947542317099,-0.5109911302745311,0,0,0,1
1.309345725337341,-0.2845947542317099,-0.5109911302745311,0,0,0,1
-1.313369274662659,0.5392076157682901,0.06836911972546877,0,0,0,1
-1.313369274662659,0.5392076157682901,0.06836911972546877,0,0,0,1
-1.313369274662659,0.5392076157682901,0.06836911972546877,0,0,0,1
1.617744025337341,-0.13698455423170988,-0.39882508027453123,0,0,0,1
1.617744025337341,-0.13698455423170988,-0.39882508027453123,0,0,0,1
1.617744025337341,-0.13698455423170988,-0.39882508027453123,0,0,0,1
-0.2304310646626591,0.031222734768290128,-0.15444425027453124,0,0,0,1
-0.2304310646626591,0.031222734768290128,-0.15444425027453124,0,0,0,1
0.38459732533734087,0.47004728576829014,-0.06064239327453122,0,0,0,1
0.38459732533734087,0.47004728576829014,-0.06064239327453122,0,0,0,1
0.38459732533734087,0.47004728576829014,-0.06064239327453122,0,0,0,1
0.38459732533734087,0.47004728576829014,-0.06064239327453122,0,0,0,1
1.828359125337341,-0.5219716842317098,-0.43674496027453125,0,0,0,1
0.7419047253373409,-0.6711598442317098,-0.5085568802745312,0,0,0,1
-1.051408274662659,-0.43460820423170987,-0.06690934427453123,0,0,0,1
-2.0392317746626594,0.20902815576829012,0.09927948972546877,0,0,0,1
-1.083919074662659,0.42424299576829017,0.28939028972546876,0,0,0,1
-1.083919074662659,0.42424299576829017,0.28939028972546876,0,0,0,1
1.227723625337341,0.44543481576829014,0.08689960972546877,0,0,0,1
2.2763629253373407,0.48150508576829015,-0.06538442027453123,0,0,0,1
-0.08915184466265912,0.022235709768290125,-0.47123638027453124,0,0,0,1
-0.08915184466265912,0.022235709768290125,-0.47123638027453124,0,0,0,1
-1.626996474662659,0.1934559057682901,-0.10106483027453123,0,0,0,1
-1.626996474662659,0.1934559057682901,-0.10106483027453123,0,0,0,1
0.2262854753373409,0.41268144576829013,0.13555165972546876,0,0,0,1
2.313684025337341,-0.32759655423170986,0.06390925972546876,0,0,0,1
-0.009587748662659105,-0.6363012842317098,-0.48497561027453123,0,0,0,1
-0.7639975346626591,-0.7008988842317099,-0.09107366027453123,0,0,0,1
-0.5372328746626591,0.32096819576829017,-0.023319037274531225,0,0,0,1
-0.5372328746626591,0.32096819576829017,-0.023319037274531225,0,0,0,1
0.44174338533734087,0.5665585557682902,-0.15092161027453124,0,0,0,1
1.161602525337341,-0.22487618423170988,0.09883495972546877,0,0,0,1
0.0430102513373409,-0.3083698542317099,0.18707379972546878,0,0,0,1
0.0430102513373409,-0.3083698542317099,0.18707379972546878,0,0,0,1
-0.0323853336626591,0.19322355576829012,-0.011495025474531226,0,0,0,1
0.3691840253373409,0.4969616157682901,-0.10414031027453123,0,0,0,1
0.42562438533734087,0.7436380557682901,-0.10052744027453123,0,0,0,1
0.0518212483373409,0.12931835576829012,-0.22953287027453123,0,0,0,1
0.07588912533734089,-0.1552146342317099,-0.5412080802745312,0,0,0,1
0.07588912533734089,-0.1552146342317099,-0.5412080802745312,0,0,0,1
-0.03408859466265911,0.07112541576829014,-0.16921392027453122,0,0,0,1
-0.03408859466265911,0.07112541576829014,-0.16921392027453122,0,0,0,1
0.09365798533734089,0.09134138576829014,0.048553316725468774,0,0,0,1
-0.6488137046626591,-0.47192524423170984,-0.23415724027453122,0,0,0,1
-0.6488137046626591,-0.47192524423170984,-0.23415724027453122,0,0,0,1
-0.5084957746626592,-0.7014783842317098,-0.03260389127453123,0,0,0,1
-0.010999186662659106,-0.11544812823170987,-0.18006089027453123,0,0,0,1
-0.010999186662659106,-0.11544812823170987,-0.18006089027453123,0,0,0,1
1.738122525337341,-0.008901771231709871,-0.03794959327453123,0,0,0,1
-0.7908282146626591,0.027198302768290127,0.03521510972546878,0,0,0,1
-1.879928074662659,1.74918081576829,0.21319373972546876,0,0,0,1
-1.879928074662659,1.74918081576829,0.21319373972546876,0,0,0,1
-1.879928074662659,1.74918081576829,0.21319373972546876,0,0,0,1
-0.3150534446626591,1.20656911576829,-0.011048109874531226,0,0,0,1
-0.8952183746626591,1.20317951576829,0.21869345972546878,0,0,0,1
-0.4295582746626591,-1.4476153842317099,-0.26116601027453124,0,0,0,1
-0.4295582746626591,-1.4476153842317099,-0.26116601027453124,0,0,0,1
-0.4295582746626591,-1.4476153842317099,-0.26116601027453124,0,0,0,1
-0.4295582746626591,-1.4476153842317099,-0.26116601027453124,0,0,0,1
0.7959027253373409,-0.4540046542317099,-0.27991334027453124,0,0,0,1
0.9197468953373409,2.16686701576829,-0.06915453227453122,0,0,0,1
-0.15771911466265912,1.01277271576829,-0.33566526027453125,0,0,0,1
-0.6917805746626591,-1.44436658423171,-0.6854310302745312,0,0,0,1
-0.6917805746626591,-1.44436658423171,-0.6854310302745312,0,0,0,1
1.265069525337341,-0.7191165842317099,0.7209915797254688,0,0,0,1
0.3444943553373409,-1.32357328423171,0.5937725197254689,0,0,0,1
-0.3058590746626591,1.02703201576829,0.04315814272546878,0,0,0,1
-0.3058590746626591,1.02703201576829,0.04315814272546878,0,0,0,1
1.264939825337341,1.26329401576829,-0.20676831027453124,0,0,0,1
-0.7789578246626591,-0.9401939842317099,-0.5622416802745311,0,0,0,1
-0.051263314662659105,-1.04431828423171,-0.16030148027453123,0,0,0,1
1.641117625337341,0.1712373557682901,0.44639929972546877,0,0,0,1
-1.815392474662659,-0.6355670842317098,-0.031230838274531224,0,0,0,1
-1.815392474662659,-0.6355670842317098,-0.031230838274531224,0,0,0,1
0.025109784337340894,-0.23357590423170987,-0.21096698027453123,0,0,0,1
0.16788436533734089,-0.025325384231709873,0.03147086372546878,0,0,0,1
-0.5328945746626591,1.21743191576829,0.18099721972546878,0,0,0,1
-0.09823463466265911,1.53799951576829,0.19979008972546877,0,0,0,1
-0.45533227466265913,-0.38601423423170983,-0.6287265102745312,0,0,0,1
-0.6545223746626591,-0.7588471842317098,-0.055140646274531226,0,0,0,1
-0.07114551866265911,0.06321946176829013,0.5477615197254688,0,0,0,1
2.722807425337341,0.5620186157682902,0.5315387197254688,0,0,0,1
0.7878766253373409,0.015732321768290126,-0.20957378027453122,0,0,0,1
-1.493532674662659,-0.7138509842317099,-0.3065312202745312,0,0,0,1
-1.681446574662659,-0.38918034423170983,-0.29922798027453124,0,0,0,1
-0.4141211346626591,0.33010368576829013,0.06172081972546877,0,0,0,1
-0.4141211346626591,0.33010368576829013,0.06172081972546877,0,0,0,1
1.745070025337341,0.5772676157682901,-0.17212132027453123,0,0,0,1
3.0876517253373406,0.41867687576829016,-0.22609607027453124,0,0,0,1
-2.674383174662659,1.66245681576829,0.15404137972546877,0,0,0,1
-2.674383174662659,1.66245681576829,0.15404137972546877,0,0,0,1
1.526068225337341,0.42699171576829015,0.06073995972546877,0,0,0,1
2.0769029253373406,-0.7498855842317098,-0.48056510027453125,0,0,0,1
-0.6307186746626591,-0.26659438423170984,-0.4640380502745312,0,0,0,1
-0.7409634446626591,-1.07113658423171,0.4482951997254688,0,0,0,1
-0.4477524546626591,0.23313237576829013,-0.47493318027453124,0,0,0,1
-0.4477524546626591,0.23313237576829013,-0.47493318027453124,0,0,0,1
-0.4477524546626591,0.23313237576829013,-0.47493318027453124,0,0,0,1
-0.8341316746626591,0.14423449576829012,-0.3327768202745312,0,0,0,1
0.8838181653373409,-0.7013886342317098,0.6684756197254689,0,0,0,1
0.8838181653373409,-0.7013886342317098,0.6684756197254689,0,0,0,1
1.218617925337341,-0.46755568423170984,0.4199354197254688,0,0,0,1
1.218617925337341,-0.46755568423170984,0.4199354197254688,0,0,0,1
-0.5131001346626591,-0.08364487823170987,-0.2726544502745312,0,0,0,1
-0.7213597146626591,-0.09716196023170987,-0.39001086027453125,0,0,0,1
-1.126396674662659,0.42211474576829017,-0.6225710202745312,0,0,0,1
0.4371047253373409,0.28709251576829015,0.040118543725468775,0,0,0,1
0.4371047253373409,0.28709251576829015,0.040118543725468775,0,0,0,1
1.793147625337341,-0.15342567423170989,0.05019280172546878,0,0,0,1
0.6274838653373409,-0.14578014423170987,-0.08978084027453123,0,0,0,1
0.6274838653373409,-0.14578014423170987,-0.08978084027453123,0,0,0,1
-1.715273874662659,0.05941451576829013,-0.6588660802745312,0,0,0,1
-2.695169874662659,-0.21496238423170988,-0.6628539802745311,0,0,0,1
-0.9378075446626591,-0.5341835442317099,-0.4794674202745312,0,0,0,1
0.3559050753373409,0.09076974176829013,-0.47481516027453124,0,0,0,1
3.054700425337341,0.2915515457682901,-0.058737430274531224,0,0,0,1
1.439192325337341,0.5526878157682902,-0.2781439102745312,0,0,0,1
-0.5299515746626591,0.35073611576829017,-0.27372792027453124,0,0,0,1
-0.5299515746626591,0.35073611576829017,-0.27372792027453124,0,0,0,1
-2.179583974662659,0.24702266576829013,-0.050303133274531224,0,0,0,1
-2.075917674662659,0.5267564157682901,0.07450720472546878,0,0,0,1
-2.075917674662659,0.5267564157682901,0.07450720472546878,0,0,0,1
0.9902520253373409,-0.9268659842317098,-0.4268212602745312,0,0,0,1
0.5312457253373409,-0.5874460842317099,-0.052657278274531226,0,0,0,1
-0.8816952746626591,1.24135051576829,0.40908666972546875,0,0,0,1
0.2381835153373409,0.01188236076829013,0.03378852972546878,0,0,0,1
0.2381835153373409,0.01188236076829013,0.03378852972546878,0,0,0,1
0.2381835153373409,0.01188236076829013,0.03378852972546878,0,0,0,1
-1.205925474662659,-0.5683710342317099,-0.3166680602745312,0,0,0,1
-0.2740902746626591,0.04240639076829013,-0.3050834302745312,0,0,0,1
-0.2740902746626591,0.04240639076829013,-0.3050834302745312,0,0,0,1
-0.2740902746626591,0.04240639076829013,-0.3050834302745312,0,0,0,1
-0.15222404466265912,0.45676984576829016,0.5964282197254688,0,0,0,1
0.3542151653373409,1.51657971576829,0.8178530197254689,0,0,0,1
0.2185712053373409,0.8605962157682902,0.06821009372546877,0,0,0,1
0.2185712053373409,0.8605962157682902,0.06821009372546877,0,0,0,1
0.09395839533734089,-0.8450056842317099,-0.24610594027453123,0,0,0,1
1.881015325337341,0.6171098157682902,-0.6445654802745312,0,0,0,1
1.881015325337341,0.6171098157682902,-0.6445654802745312,0,0,0,1
0.07938625033734088,-1.14919228423171,0.09102889972546876,0,0,0,1
0.07938625033734088,-1.14919228423171,0.09102889972546876,0,0,0,1
0.07938625033734088,-1.14919228423171,0.09102889972546876,0,0,0,1
-0.09385727466265911,-0.17518011423170987,0.7014698197254688,0,0,0,1
1.084291025337341,1.06701341576829,1.1679606197254688,0,0,0,1
1.361222725337341,0.20434379576829012,1.0675001197254688,0,0,0,1
1.361222725337341,0.20434379576829012,1.0675001197254688,0,0,0,1
-0.3957857946626591,-1.0627587842317099,-0.20205477027453123,0,0,0,1
-0.3957857946626591,-1.0627587842317099,-0.20205477027453123,0,0,0,1
