acc_x,acc_y,acc_z,gyro_x,gyro_y,gyro_z,label
-1.255608074662659,1.23783461576829,0.9610106197254689,0,0,0,1
0.5236993253373409,-1.67881558423171,-0.32219383027453125,0,0,0,1
0.5236993253373409,-1.67881558423171,-0.32219383027453125,0,0,0,1
0.5236993253373409,-1.67881558423171,-0.32219383027453125,0,0,0,1
0.5236993253373409,-1.67881558423171,-0.32219383027453125,0,0,0,1
0.5236993253373409,-1.67881558423171,-0.32219383027453125,0,0,0,1
0.6244025253373409,-1.37311858423171,-0.47016496027453125,0,0,0,1
1.283256025337341,0.6947772657682901,0.6919101197254688,0,0,0,1
0.5102057653373409,1.16306091576829,0.5821814197254688,0,0,0,1
0.5102057653373409,1.16306091576829,0.5821814197254688,0,0,0,1
-0.18001602466265912,0.24079633576829013,-0.4961101102745312,0,0,0,1
-0.10174892466265911,-0.7996368242317099,-0.49876502027453123,0,0,0,1
-0.10174892466265911,-0.7996368242317099,-0.49876502027453123,0,0,0,1
-0.2963948046626591,-0.9390540542317098,-0.19270173027453122,0,0,0,1
-0.5219845746626591,-0.05475750923170987,0.8209831197254688,0,0,0,1
-0.5219845746626591,-0.05475750923170987,0.8209831197254688,0,0,0,1
-0.5446886746626591,1.00370791576829,1.5466115197254688,0,0,0,1
0.019589917337340897,1.08846681576829,1.2955887197254687,0,0,0,1
0.019589917337340897,1.08846681576829,1.2955887197254687,0,0,0,1
1.496102825337341,-1.2514745842317099,-0.3480753002745312,0,0,0,1
0.3283600953373409,-0.2938532642317099,-0.3340870502745312,0,0,0,1
0.10580779533734089,0.015058364768290129,0.47347381972546876,0,0,0,1
0.1847863353373409,-1.20232188423171,0.12938209972546877,0,0,0,1
1.459071625337341,-1.02706668423171,0.4095363897254688,0,0,0,1
1.726392325337341,-0.49878523423170984,0.5767459597254688,0,0,0,1
1.726392325337341,-0.49878523423170984,0.5767459597254688,0,0,0,1
0.018655315337340897,0.5944843457682901,0.5711695797254688,0,0,0,1
0.018655315337340897,0.5944843457682901,0.5711695797254688,0,0,0,1
-0.8406834446626591,1.1917261157682901,0.2806657197254688,0,0,0,1
0.9247222253373409,-0.6874799842317099,-0.22067938027453124,0,0,0,1
0.9247222253373409,-0.6874799842317099,-0.22067938027453124,0,0,0,1
0.9338650853373409,-0.5543054142317099,0.3265857397254688,0,0,0,1
0.4590382753373409,-0.12137050423170986,0.8908732797254688,0,0,0,1
-0.3060288246626591,0.1978401157682901,0.4534351497254688,0,0,0,1
-1.985359674662659,0.33905096576829014,0.8324683597254688,0,0,0,1
-1.985359674662659,0.33905096576829014,0.8324683597254688,0,0,0,1
-1.985359674662659,0.33905096576829014,0.8324683597254688,0,0,0,1
0.5874705253373409,-0.14794492423170988,1.7520867197254688,0,0,0,1
1.820891825337341,-0.7113641342317099,-0.08519056627453123,0,0,0,1
1.820891825337341,-0.7113641342317099,-0.08519056627453123,0,0,0,1
-0.7622456346626592,0.8763099157682901,0.06188091472546877,0,0,0,1
-0.7622456346626592,0.8763099157682901,0.06188091472546877,0,0,0,1
0.3719811553373409,0.18072151576829013,0.8714501497254689,0,0,0,1
0.3719811553373409,0.18072151576829013,0.8714501497254689,0,0,0,1
1.361942725337341,-0.6757047842317099,0.3914360697254688,0,0,0,1
1.361942725337341,-0.6757047842317099,0.3914360697254688,0,0,0,1
1.582632525337341,-0.9173341242317099,0.3196568197254688,0,0,0,1
1.582632525337341,-0.9173341242317099,0.3196568197254688,0,0,0,1
-0.5430455046626591,0.6869014157682901,0.7470383197254689,0,0,0,1
-1.122797474662659,0.8784100557682901,0.46893961972546877,0,0,0,1
2.1586270253373407,0.06087143576829013,-0.44475636027453125,0,0,0,1
1.689295325337341,0.05180520876829013,-0.39381293027453124,0,0,0,1
1.689295325337341,0.05180520876829013,-0.39381293027453124,0,0,0,1
-1.536996374662659,0.3279307357682901,0.23145016972546878,0,0,0,1
-1.536996374662659,0.3279307357682901,0.23145016972546878,0,0,0,1
-1.417681174662659,0.29140951576829016,0.8883245897254688,0,0,0,1
-0.4473986446626591,0.08634285976829013,1.2391986197254687,0,0,0,1
0.059880749337340895,0.13522291576829013,0.9434135797254688,0,0,0,1
1.038108325337341,0.03180520576829013,0.38439901972546875,0,0,0,1
2.1948008253373406,-0.6589193842317098,-0.27905896027453125,0,0,0,1
0.7174849653373409,0.18661378576829013,-0.13462952027453123,0,0,0,1
0.2475333253373409,0.9236646457682901,0.48049207972546876,0,0,0,1
0.0868306353373409,0.33935784576829015,0.009731022725468774,0,0,0,1
0.0868306353373409,0.33935784576829015,0.009731022725468774,0,0,0,1
0.9906106253373409,-0.6923027842317099,0.9970674197254688,0,0,0,1
0.9906106253373409,-0.6923027842317099,0.9970674197254688,0,0,0,1
1.738411425337341,0.6519829157682901,1.5943109197254688,0,0,0,1
1.837979825337341,0.6745989457682902,0.8963298197254689,0,0,0,1
0.8061814253373409,-1.08686098423171,-0.7655056802745311,0,0,0,1
-0.6289057746626591,2.08656571576829,0.4417709997254688,0,0,0,1
1.573673725337341,-1.6845364842317099,-0.10545078027453123,0,0,0,1
-0.9545035246626591,1.1085910157682901,0.4185660797254688,0,0,0,1
0.6224980253373409,-0.8862161842317099,-0.9591408802745311,0,0,0,1
3.2925944253373407,-0.8336849842317099,-1.4067040802745312,0,0,0,1
3.2925944253373407,-0.8336849842317099,-1.4067040802745312,0,0,0,1
-2.5750350746626594,-0.6246368842317098,0.6465050897254688,0,0,0,1
-1.530859474662659,-0.38418440423170985,1.1212373197254688,0,0,0,1
-1.530859474662659,-0.38418440423170985,1.1212373197254688,0,0,0,1
-1.530859474662659,-0.38418440423170985,1.1212373197254688,0,0,0,1
1.735062125337341,0.1272973857682901,-0.7356834802745311,0,0,0,1
2.067187725337341,0.020660418768290126,-1.2839455802745312,0,0,0,1
2.067187725337341,0.020660418768290126,-1.2839455802745312,0,0,0,1
0.17992927533734088,0.2961233757682901,-0.5043349602745312,0,0,0,1
0.17992927533734088,0.2961233757682901,-0.5043349602745312,0,0,0,1
-0.3101029246626591,-0.33166776423170985,0.37662669972546875,0,0,0,1
-0.3101029246626591,-0.33166776423170985,0.37662669972546875,0,0,0,1
-0.2603812046626591,-1.08965968423171,0.7251108597254688,0,0,0,1
0.9121289253373409,0.46175201576829017,0.5761502697254688,0,0,0,1
2.1978860253373407,0.8176671157682901,0.8837899897254688,0,0,0,1
1.310086725337341,0.48841269576829016,-0.9536960802745311,0,0,0,1
1.310086725337341,0.48841269576829016,-0.9536960802745311,0,0,0,1
-0.49856804466265914,-0.8525533542317099,-0.5410726402745312,0,0,0,1
-0.1534895746626591,0.5820124157682901,1.3487058197254689,0,0,0,1
2.3900123253373406,0.6481175157682901,0.5902284197254688,0,0,0,1
2.425962025337341,0.18099798576829013,-0.9742601802745312,0,0,0,1
1.239096225337341,0.01843719576829013,-1.491052880274531,0,0,0,1
1.239096225337341,0.01843719576829013,-1.491052880274531,0,0,0,1
-0.3137097246626591,0.08186541576829014,-1.2277994802745311,0,0,0,1
-1.293858074662659,0.6321504157682901,-0.8325913302745311,0,0,0,1
-1.048605474662659,0.8553665157682901,0.6298250797254689,0,0,0,1
-0.1782784346626591,0.16222490576829013,2.2105233197254686,0,0,0,1
2.1613937253373408,-1.28615628423171,-0.7561796802745312,0,0,0,1
2.087723225337341,-1.62168118423171,-1.5616502802745311,0,0,0,1
2.087723225337341,-1.62168118423171,-1.5616502802745311,0,0,0,1
0.5273575953373408,-0.5957007242317098,-1.7968174802745311,0,0,0,1
0.5273575953373408,-0.5957007242317098,-1.7968174802745311,0,0,0,1
-0.5206370146626591,0.10531236576829013,-1.0977408802745312,0,0,0,1
-1.145890674662659,0.6236248157682901,0.42434009972546877,0,0,0,1
-1.145890674662659,0.6236248157682901,0.42434009972546877,0,0,0,1
-0.8384909746626591,-0.25108058423170987,0.16974564972546877,0,0,0,1
-0.8384909746626591,-0.25108058423170987,0.16974564972546877,0,0,0,1
2.664894625337341,-1.87246038423171,-0.9607693302745312,0,0,0,1
1.857196325337341,-1.34028658423171,-0.9958406402745311,0,0,0,1
1.857196325337341,-1.34028658423171,-0.9958406402745311,0,0,0,1
-0.5528988746626591,0.6288168657682901,-0.25838390027453123,0,0,0,1
-0.5528988746626591,0.6288168657682901,-0.25838390027453123,0,0,0,1
-0.24356602466265911,0.6165773157682901,0.05688675972546877,0,0,0,1
-0.35287712466265914,0.21728629576829012,-0.030900867274531226,0,0,0,1
0.07654716533734089,0.25697328576829015,-0.4486205802745312,0,0,0,1
0.07654716533734089,0.25697328576829015,-0.4486205802745312,0,0,0,1
1.374686725337341,0.27172221576829014,-0.7279660402745312,0,0,0,1
1.697384325337341,-0.03370244423170987,-0.9993969802745312,0,0,0,1
1.697384325337341,-0.03370244423170987,-0.9993969802745312,0,0,0,1
-0.1703753346626591,0.26901267576829013,-0.24614397027453122,0,0,0,1
-0.26517627466265914,-0.5033631842317099,0.23402031972546877,0,0,0,1
0.8653264253373409,-0.7399800242317098,0.3484866197254688,0,0,0,1
0.8653264253373409,-0.7399800242317098,0.3484866197254688,0,0,0,1
1.666898225337341,-0.22444073423170988,-0.23535660027453123,0,0,0,1
1.307121725337341,-0.02286483023170987,-1.1937083802745312,0,0,0,1
1.307121725337341,-0.02286483023170987,-1.1937083802745312,0,0,0,1
1.307121725337341,-0.02286483023170987,-1.1937083802745312,0,0,0,1
0.45703364533734087,-0.28554868423170987,-1.3335019802745312,0,0,0,1
0.45703364533734087,-0.28554868423170987,-1.3335019802745312,0,0,0,1
-1.424703074662659,0.42883353576829014,-0.3427905202745312,0,0,0,1
-1.424703074662659,0.42883353576829014,-0.3427905202745312,0,0,0,1
2.2285361253373406,-0.04843385223170987,0.19337209972546876,0,0,0,1
2.2285361253373406,-0.04843385223170987,0.19337209972546876,0,0,0,1
1.619349925337341,-0.39243638423170984,-0.6065356802745312,0,0,0,1
0.5624308753373409,-0.5500085842317098,-0.9762943102745312,0,0,0,1
-0.24078701466265912,-0.14099992423170987,-0.6199299402745312,0,0,0,1
-1.057337274662659,0.47169711576829015,-0.4494465802745312,0,0,0,1
-1.057337274662659,0.47169711576829015,-0.4494465802745312,0,0,0,1
-1.057337274662659,0.47169711576829015,-0.4494465802745312,0,0,0,1
1.515173425337341,-0.3468056842317099,-0.11526838027453123,0,0,0,1
2.4216199253373407,-0.45978413423170983,-0.30835930027453123,0,0,0,1
1.636333925337341,0.1705622257682901,-0.11310747427453123,0,0,0,1
0.3876176053373409,0.5518938157682901,-0.2731529802745312,0,0,0,1
-0.2605194746626591,0.36035354576829015,0.022876349725468773,0,0,0,1
-0.5839743746626591,0.10869379576829014,0.16171081972546877,0,0,0,1
-0.05644653466265911,0.42050381576829016,0.07411786972546877,0,0,0,1
-0.05644653466265911,0.42050381576829016,0.07411786972546877,0,0,0,1
-0.05644653466265911,0.42050381576829016,0.07411786972546877,0,0,0,1
2.1398091253373406,-0.08169109423170987,-0.5889918802745312,0,0,0,1
1.381825025337341,-0.8199393842317099,-0.46356328027453125,0,0,0,1
1.381825025337341,-0.8199393842317099,-0.46356328027453125,0,0,0,1
-0.4428915746626591,0.11733828576829013,0.3091278997254688,0,0,0,1
-0.19035099466265912,-1.0424537842317099,-0.6727912802745312,0,0,0,1
-0.19035099466265912,-1.0424537842317099,-0.6727912802745312,0,0,0,1
0.20196963533734089,0.1918958357682901,0.23970123972546878,0,0,0,1
0.20196963533734089,0.1918958357682901,0.23970123972546878,0,0,0,1
-0.19035099466265912,-1.0424537842317099,-0.6727912802745312,0,0,0,1
0.20196963533734089,0.1918958357682901,0.23970123972546878,0,0,0,1
0.20196963533734089,0.1918958357682901,0.23970123972546878,0,0,0,1
0.9007296753373409,1.92428111576829,0.4237204497254688,0,0,0,1
-0.1883158546626591,-1.18889518423171,-1.0706535802745312,0,0,0,1
-0.7690825346626591,-1.25502728423171,-0.6422703802745312,0,0,0,1
-0.5876927246626591,-0.5847716142317099,0.05747720472546878,0,0,0,1
0.8457150653373409,-0.45280234423170984,0.7790372197254688,0,0,0,1
1.676249025337341,-0.43065098423170983,0.3963027897254688,0,0,0,1
1.676249025337341,-0.43065098423170983,0.3963027897254688,0,0,0,1
-0.16395424466265912,1.4011264157682901,-0.5053420402745312,0,0,0,1
-0.16395424466265912,1.4011264157682901,-0.5053420402745312,0,0,0,1
-0.016602976662659107,1.13363051576829,-0.45561972027453124,0,0,0,1
0.26638462533734086,0.19974301576829012,-0.4613912402745312,0,0,0,1
0.9462266253373409,-0.6644059842317098,-0.47173730027453126,0,0,0,1
1.045030125337341,-1.02774448423171,-0.4330121602745312,0,0,0,1
1.045030125337341,-1.02774448423171,-0.4330121602745312,0,0,0,1
-0.0821976496626591,-0.6424598542317098,-0.12329558027453123,0,0,0,1
-0.0821976496626591,-0.6424598542317098,-0.12329558027453123,0,0,0,1
-1.197184974662659,-0.08905546023170988,0.028312413725468773,0,0,0,1
-1.197184974662659,-0.08905546023170988,0.028312413725468773,0,0,0,1
-1.197184974662659,-0.08905546023170988,0.028312413725468773,0,0,0,1
1.688266325337341,0.1576405057682901,-0.46059284027453123,0,0,0,1
1.688266325337341,0.1576405057682901,-0.46059284027453123,0,0,0,1
2.0623087253373407,-0.6947294242317098,-1.1338802802745311,0,0,0,1
0.9256768253373409,-1.6331533842317099,-1.0401918802745311,0,0,0,1
-1.170167474662659,-1.32951688423171,-0.5415274202745312,0,0,0,1
-1.170167474662659,-1.32951688423171,-0.5415274202745312,0,0,0,1
-2.3206692746626594,0.27835624576829016,1.4180863197254687,0,0,0,1
-2.3206692746626594,0.27835624576829016,1.4180863197254687,0,0,0,1
0.10352851533734089,0.009053844768290128,-0.19265261027453123,0,0,0,1
0.10352851533734089,0.009053844768290128,-0.19265261027453123,0,0,0,1
