acc_x,acc_y,acc_z,gyro_x,gyro_y,gyro_z,label
-0.7925696246626591,-2.6390550842317095,-0.9557912802745312,0,0,0,1
0.12345458533734088,-2.36640108423171,-0.35127965027453123,0,0,0,1
0.8576569753373409,0.8605114157682902,1.3390644197254689,0,0,0,1
2.022485225337341,1.27442861576829,1.4815151197254688,0,0,0,1
0.8559098253373408,1.10789801576829,0.4783866697254688,0,0,0,1
0.8559098253373408,1.10789801576829,0.4783866697254688,0,0,0,1
-0.5506167246626591,-0.6363711142317099,-0.3169751502745312,0,0,0,1
-0.7345843146626592,-0.05294458223170987,-0.9251412802745311,0,0,0,1
-0.9398073746626591,0.7857143157682901,-1.3093764802745311,0,0,0,1
1.676230925337341,-0.6630156842317099,-0.5798309202745312,0,0,0,1
1.676230925337341,-0.6630156842317099,-0.5798309202745312,0,0,0,1
0.4600939953373409,-0.11924053423170987,-0.5147499202745311,0,0,0,1
-0.2709259746626591,-0.2108660742317099,0.9597316697254689,0,0,0,1
-0.6145539146626591,-0.07343564423170987,1.3523311197254688,0,0,0,1
-0.6145539146626591,-0.07343564423170987,1.3523311197254688,0,0,0,1
1.725264125337341,0.04307042576829013,0.20424851972546876,0,0,0,1
2.5186915253373408,-1.0819589842317099,-0.5212216802745312,0,0,0,1
0.3876300053373409,-1.46579168423171,-0.9490967802745311,0,0,0,1
-0.9938454746626592,1.38246461576829,-0.12179986027453123,0,0,0,1
-0.6157383746626591,1.46689801576829,0.09511276972546877,0,0,0,1
0.0525355503373409,-0.6532333842317098,0.19078698972546876,0,0,0,1
2.0556245253373406,-1.25537918423171,0.16322966972546876,0,0,0,1
2.0556245253373406,-1.25537918423171,0.16322966972546876,0,0,0,1
2.321620525337341,-0.6155081242317099,0.3125280397254688,0,0,0,1
0.5088458253373409,1.58043281576829,0.45123943972546876,0,0,0,1
-0.1324992046626591,1.24349431576829,0.3107954497254688,0,0,0,1
-0.22859810466265912,-0.19895730423170987,-0.9414422202745312,0,0,0,1
-0.22859810466265912,-0.19895730423170987,-0.9414422202745312,0,0,0,1
0.4790110753373409,-0.8595570142317098,-1.1715196802745311,0,0,0,1
1.176326325337341,-1.22617028423171,-1.0966284802745312,0,0,0,1
-1.570225274662659,1.04284361576829,0.8849976197254689,0,0,0,1
-0.1311049346626591,0.8561915157682901,1.2048144197254689,0,0,0,1
1.661532925337341,0.23370753576829012,-0.3311359002745312,0,0,0,1
-0.44412849466265913,0.5757855157682902,-1.0912108802745313,0,0,0,1
-1.794488374662659,-0.37707863423170984,-0.9543910802745311,0,0,0,1
-1.794488374662659,-0.37707863423170984,-0.9543910802745311,0,0,0,1
-1.794488374662659,-0.37707863423170984,-0.9543910802745311,0,0,0,1
2.9838214253373407,0.9398497557682901,0.8694704197254688,0,0,0,1
0.1105427903373409,0.34633203576829014,-0.19125131027453124,0,0,0,1
0.1105427903373409,0.34633203576829014,-0.19125131027453124,0,0,0,1
-1.940689574662659,-0.004631262531709871,-0.4610411802745312,0,0,0,1
-1.940689574662659,-0.004631262531709871,-0.4610411802745312,0,0,0,1
-2.606607374662659,0.12598717576829013,-0.3022767602745312,0,0,0,1
-1.520440574662659,0.29356463576829017,0.10993590972546877,0,0,0,1
0.0856757353373409,0.6279219557682901,0.15912016972546877,0,0,0,1
-0.0425476866626591,-1.77052958423171,-1.0498400802745311,0,0,0,1
-0.0425476866626591,-1.77052958423171,-1.0498400802745311,0,0,0,1
-0.0425476866626591,-1.77052958423171,-1.0498400802745311,0,0,0,1
-0.0425476866626591,-1.77052958423171,-1.0498400802745311,0,0,0,1
-1.843030874662659,1.76603081576829,1.4249036197254688,0,0,0,1
-1.843030874662659,1.76603081576829,1.4249036197254688,0,0,0,1
1.112057225337341,1.21775831576829,1.4675132197254688,0,0,0,1
2.5963368253373407,-0.5937506842317098,-0.08781663027453122,0,0,0,1
2.7192960253373406,-0.5343662342317098,-0.6763044802745312,0,0,0,1
1.596198525337341,0.05347664976829013,-1.3023747802745311,0,0,0,1
-1.708671074662659,0.7683586157682901,-1.3553469802745313,0,0,0,1
-3.611127274662659,-0.8876790842317098,-0.15029469027453124,0,0,0,1
-0.5615439246626591,-1.47576908423171,0.8752481197254688,0,0,0,1
1.319035025337341,-0.41784498423170985,0.8183735197254688,0,0,0,1
1.319035025337341,-0.41784498423170985,0.8183735197254688,0,0,0,1
2.796646725337341,0.02417721176829013,0.8934717197254688,0,0,0,1
4.067077225337341,-0.7196569842317099,0.6042430197254688,0,0,0,1
1.340870425337341,0.23053445576829013,-0.3525009502745312,0,0,0,1
1.340870425337341,0.23053445576829013,-0.3525009502745312,0,0,0,1
-4.786239574662659,2.7168071157682903,-0.7373657802745311,0,0,0,1
-2.694086574662659,0.28596236576829015,-0.6792706802745312,0,0,0,1
-2.694086574662659,0.28596236576829015,-0.6792706802745312,0,0,0,1
0.15458156533734088,-0.7501587842317099,-0.03181353327453122,0,0,0,1
2.7308612253373408,-0.7217340842317098,0.06637092972546876,0,0,0,1
4.07483722533734,-0.28978908423170985,0.7998696197254688,0,0,0,1
3.760040725337341,0.08095997576829013,0.8238388597254688,0,0,0,1
1.994789625337341,-0.28205058423170987,-0.03328362227453122,0,0,0,1
-0.5867161746626591,-1.38218278423171,-0.26524964027453124,0,0,0,1
-3.287888474662659,1.25551701576829,0.04187974172546878,0,0,0,1
-3.287888474662659,1.25551701576829,0.04187974172546878,0,0,0,1
1.527666625337341,0.07759489576829014,-1.3531460802745312,0,0,0,1
1.531558525337341,0.08402346576829013,-1.313061480274531,0,0,0,1
1.714245325337341,-0.44358148423170984,-0.5650682202745312,0,0,0,1
1.714245325337341,-0.44358148423170984,-0.5650682202745312,0,0,0,1
1.714245325337341,-0.44358148423170984,-0.5650682202745312,0,0,0,1
-1.234173274662659,0.1966853957682901,0.48530711972546875,0,0,0,1
-2.445478374662659,0.9671635857682901,0.6852115697254688,0,0,0,1
-2.445478374662659,0.9671635857682901,0.6852115697254688,0,0,0,1
-2.445478374662659,0.9671635857682901,0.6852115697254688,0,0,0,1
-0.2877068346626591,-0.39214591423170986,0.30097111972546875,0,0,0,1
3.058650525337341,0.47952415576829016,-0.19563839027453123,0,0,0,1
3.058650525337341,0.47952415576829016,-0.19563839027453123,0,0,0,1
3.058650525337341,0.47952415576829016,-0.19563839027453123,0,0,0,1
2.410173925337341,0.9855541157682901,-1.1139822802745312,0,0,0,1
-0.5901398746626592,0.36272321576829014,-0.7487980402745312,0,0,0,1
-2.031372974662659,0.20040031576829012,0.05029746772546878,0,0,0,1
-2.976618774662659,0.49218811576829014,0.2649572797254688,0,0,0,1
1.882420125337341,0.14761711576829012,0.7507706597254689,0,0,0,1
1.882420125337341,0.14761711576829012,0.7507706597254689,0,0,0,1
1.948854925337341,-0.46388398423170984,0.11439761372546876,0,0,0,1
1.948854925337341,-0.46388398423170984,0.11439761372546876,0,0,0,1
0.9163336953373409,-1.86244708423171,-0.24975458027453123,0,0,0,1
-0.06633137066265911,-0.7667215842317099,0.10115172972546876,0,0,0,1
-0.06633137066265911,-0.7667215842317099,0.10115172972546876,0,0,0,1
-1.913928974662659,1.41337041576829,-0.18672934027453122,0,0,0,1
1.440750625337341,-1.42501208423171,0.13083490972546877,0,0,0,1
0.4143119053373409,0.09971556576829013,0.20611723972546878,0,0,0,1
0.4143119053373409,0.09971556576829013,0.20611723972546878,0,0,0,1
2.1079268253373407,0.9751496157682902,0.18387325972546878,0,0,0,1
-2.5863542746626593,0.8060039157682901,-0.9719416202745311,0,0,0,1
-2.5863542746626593,0.8060039157682901,-0.9719416202745311,0,0,0,1
-2.5863542746626593,0.8060039157682901,-0.9719416202745311,0,0,0,1
1.136917625337341,-0.6213389842317099,-0.6070544402745311,0,0,0,1
2.9709420253373406,0.22788454576829012,0.37435933972546875,0,0,0,1
2.220449925337341,-0.16556940423170988,0.44184383972546876,0,0,0,1
-1.023441774662659,0.39250286576829013,0.22052338972546878,0,0,0,1
-1.023441774662659,0.39250286576829013,0.22052338972546878,0,0,0,1
-1.814055474662659,0.6031911557682902,0.16470094972546878,0,0,0,1
-0.5296511746626591,0.39351906576829015,-0.021869988774531224,0,0,0,1
-0.5296511746626591,0.39351906576829015,-0.021869988774531224,0,0,0,1
-0.4825501246626591,0.6816708157682901,0.02497359972546877,0,0,0,1
1.256415825337341,-0.008143079231709871,-0.6046517802745311,0,0,0,1
1.256415825337341,-0.008143079231709871,-0.6046517802745311,0,0,0,1
-1.640944974662659,-1.02888348423171,-0.5870848802745312,0,0,0,1
0.2947192253373409,-1.17100258423171,0.5427577197254688,0,0,0,1
0.2947192253373409,-1.17100258423171,0.5427577197254688,0,0,0,1
1.449080925337341,-0.2576134842317099,0.5571176697254688,0,0,0,1
1.196692025337341,0.15115931576829011,-0.9615476802745312,0,0,0,1
1.196692025337341,0.15115931576829011,-0.9615476802745312,0,0,0,1
-1.664014274662659,-0.22949738423170987,-1.1736308802745312,0,0,0,1
-3.025763974662659,-0.9685175242317099,-1.307004480274531,0,0,0,1
0.14965106533734088,1.29855641576829,1.0500411197254689,0,0,0,1
0.14965106533734088,1.29855641576829,1.0500411197254689,0,0,0,1
2.4319557253373407,0.6550745157682901,1.2838950197254688,0,0,0,1
3.343601725337341,-0.5283084842317098,0.7090060197254688,0,0,0,1
0.4678406853373409,0.31922368576829013,-0.8092475802745311,0,0,0,1
-2.052669074662659,2.0418992157682903,-1.3417551802745311,0,0,0,1
-2.052669074662659,2.0418992157682903,-1.3417551802745311,0,0,0,1
-2.052669074662659,2.0418992157682903,-1.3417551802745311,0,0,0,1
-0.9926657746626592,-0.8658099842317099,-0.5233668802745312,0,0,0,1
1.214717425337341,0.1823020757682901,0.4366886197254688,0,0,0,1
1.214717425337341,0.1823020757682901,0.4366886197254688,0,0,0,1
2.8372989253373406,-0.47891552423170985,1.0256371197254688,0,0,0,1
2.8372989253373406,-0.47891552423170985,1.0256371197254688,0,0,0,1
-1.082240574662659,-1.07112558423171,0.6501411197254688,0,0,0,1
-2.516198174662659,-0.24262521423170988,0.3654146497254688,0,0,0,1
-1.548299274662659,0.5744285757682901,0.5964700197254689,0,0,0,1
-1.548299274662659,0.5744285757682901,0.5964700197254689,0,0,0,1
-0.7144312746626591,1.00222411576829,-0.2546269002745312,0,0,0,1
2.0429873253373407,0.5605926657682901,-1.4572755802745312,0,0,0,1
2.847846525337341,-0.2940991042317099,-1.4292597802745313,0,0,0,1
1.229792125337341,0.10808737576829013,-1.4317635802745312,0,0,0,1
-1.076953374662659,1.02086151576829,-0.7048835502745312,0,0,0,1
-1.076953374662659,1.02086151576829,-0.7048835502745312,0,0,0,1
-1.076953374662659,1.02086151576829,-0.7048835502745312,0,0,0,1
-0.5246729746626592,-0.1530627142317099,1.4350798197254688,0,0,0,1
1.592284725337341,-0.02503312823170987,0.8934898697254688,0,0,0,1
3.1133742253373407,-0.007237058231709871,0.5299991197254689,0,0,0,1
2.4035392253373407,-0.061348894231709875,-0.3275726202745312,0,0,0,1
2.4035392253373407,-0.061348894231709875,-0.3275726202745312,0,0,0,1
-1.240793674662659,-0.2466756542317099,-1.6082334802745313,0,0,0,1
-1.240793674662659,-0.2466756542317099,-1.6082334802745313,0,0,0,1
-2.887549874662659,1.12640231576829,0.15530034972546877,0,0,0,1
0.4529223553373409,0.7156204157682902,1.1559606197254688,0,0,0,1
2.0878758253373406,0.14733040576829012,1.0124126197254688,0,0,0,1
2.108452325337341,0.18566948576829012,0.27496483972546876,0,0,0,1
2.237452025337341,-0.6020371842317098,0.002425996725468774,0,0,0,1
-1.803608874662659,-1.26096518423171,-0.33467718027453125,0,0,0,1
-2.3472709746626594,1.1542065157682901,-0.028593392274531226,0,0,0,1
0.7071862253373409,1.21431351576829,-0.027546794274531227,0,0,0,1
0.7071862253373409,1.21431351576829,-0.027546794274531227,0,0,0,1
1.829592225337341,1.38306701576829,-0.7928668802745312,0,0,0,1
1.829592225337341,1.38306701576829,-0.7928668802745312,0,0,0,1
0.6961274253373408,-0.2394869142317099,-0.8088752802745311,0,0,0,1
-2.118300374662659,-0.7264696142317099,-0.8342358202745311,0,0,0,1
-2.118300374662659,-0.7264696142317099,-0.8342358202745311,0,0,0,1
-2.1396412746626594,-1.38700608423171,0.09749003972546877,0,0,0,1
-2.1396412746626594,-1.38700608423171,0.09749003972546877,0,0,0,1
-0.3954033746626591,-1.12424268423171,0.7850850497254688,0,0,0,1
0.4903283253373409,-0.44166688423170986,1.1115419197254688,0,0,0,1
2.228883325337341,0.40894808576829017,0.7890784197254688,0,0,0,1
3.581320325337341,0.41186456576829017,-0.3707272802745312,0,0,0,1
2.7803912253373406,0.9014659157682902,-1.2809343802745312,0,0,0,1
-2.3235754746626593,0.49419273576829015,-1.939443180274531,0,0,0,1
-2.3235754746626593,0.49419273576829015,-1.939443180274531,0,0,0,1
-3.252942074662659,0.17515802576829012,-1.688995180274531,0,0,0,1
-0.8326267746626591,0.46897234576829017,0.3931835197254688,0,0,0,1
