acc_x,acc_y,acc_z,gyro_x,gyro_y,gyro_z,label
0.6123547753373408,-0.11406821423170987,0.20218893972546878,0,0,0,1
1.020216525337341,-0.5228438242317098,0.07162710972546878,0,0,0,1
1.020216525337341,-0.5228438242317098,0.07162710972546878,0,0,0,1
1.020216525337341,-0.5228438242317098,0.07162710972546878,0,0,0,1
-0.4038090546626591,-0.27024558423170986,-0.11613873027453123,0,0,0,1
-0.7399992746626591,0.27237294576829013,-0.18283621027453123,0,0,0,1
-0.7399992746626591,0.27237294576829013,-0.18283621027453123,0,0,0,1
-0.07878063466265911,-0.1847195442317099,-0.2848433602745312,0,0,0,1
-0.07878063466265911,-0.1847195442317099,-0.2848433602745312,0,0,0,1
1.297448625337341,-0.5881755142317099,-0.15350488027453124,0,0,0,1
-0.1715845946626591,1.17132891576829,0.3564712697254688,0,0,0,1
-0.1715845946626591,1.17132891576829,0.3564712697254688,0,0,0,1
-0.1715845946626591,1.17132891576829,0.3564712697254688,0,0,0,1
-0.5791783146626591,0.9650459457682902,0.21813305972546876,0,0,0,1
-0.5791783146626591,0.9650459457682902,0.21813305972546876,0,0,0,1
0.8297534253373409,0.021761807768290127,-0.3151479102745312,0,0,0,1
1.713079925337341,0.023096117768290125,-0.10551277027453122,0,0,0,1
1.700233925337341,0.44002403576829013,0.3432013697254688,0,0,0,1
1.700233925337341,0.44002403576829013,0.3432013697254688,0,0,0,1
1.700233925337341,0.44002403576829013,0.3432013697254688,0,0,0,1
-0.6336560046626591,-0.28495071423170987,-0.3248644202745312,0,0,0,1
-0.2712321146626591,-0.28717861423170987,-0.46479383027453125,0,0,0,1
0.1714739953373409,0.1742137257682901,-0.3366588802745312,0,0,0,1
0.7773404253373409,0.44959371576829016,-0.10906187027453124,0,0,0,1
0.7773404253373409,0.44959371576829016,-0.10906187027453124,0,0,0,1
0.9220872253373409,0.32506408576829016,-0.13045326027453122,0,0,0,1
0.3546948553373409,-0.022659522231709868,0.021554199725468775,0,0,0,1
-0.8311838746626591,-0.34169478423170985,0.005874959725468775,0,0,0,1
-0.8311838746626591,-0.34169478423170985,0.005874959725468775,0,0,0,1
-0.4749684146626591,0.26909261576829013,-0.033764990274531226,0,0,0,1
0.1351552153373409,0.8379059657682901,-0.20965579027453124,0,0,0,1
0.7942471653373409,0.29820908576829014,-0.49520531027453124,0,0,0,1
-0.7018227446626591,-0.9118945842317099,-0.5930508802745311,0,0,0,1
-0.9252447746626591,-0.37137941423170984,0.07166930972546877,0,0,0,1
-0.9252447746626591,-0.37137941423170984,0.07166930972546877,0,0,0,1
0.1546521353373409,0.9823641157682902,0.7582440197254688,0,0,0,1
0.1546521353373409,0.9823641157682902,0.7582440197254688,0,0,0,1
1.273131825337341,-0.6363183842317098,-0.14070228027453122,0,0,0,1
1.273131825337341,-0.6363183842317098,-0.14070228027453122,0,0,0,1
1.273131825337341,-0.6363183842317098,-0.14070228027453122,0,0,0,1
-0.09779880466265911,-1.33656848423171,-0.7407043302745312,0,0,0,1
-1.047115774662659,-0.3296216242317099,-0.23964873027453124,0,0,0,1
-0.1833605646626591,1.44845141576829,0.5692989497254688,0,0,0,1
1.627610725337341,1.07431921576829,0.4286859897254688,0,0,0,1
0.8518681653373409,-0.5423709842317098,-0.5908611102745311,0,0,0,1
-1.189959074662659,-0.5796479442317098,-0.5764875802745312,0,0,0,1
-1.189959074662659,-0.5796479442317098,-0.5764875802745312,0,0,0,1
-1.189959074662659,-0.5796479442317098,-0.5764875802745312,0,0,0,1
-1.434494474662659,-0.04204386123170987,0.8563209197254689,0,0,0,1
1.764743325337341,1.13695821576829,0.8232937697254689,0,0,0,1
3.3215833253373406,0.5003079957682901,0.5895248197254688,0,0,0,1
3.3215833253373406,0.5003079957682901,0.5895248197254688,0,0,0,1
0.6285939253373409,-0.7377923542317099,-0.6533377502745312,0,0,0,1
-1.039610374662659,-0.7959949842317099,-0.6509680802745311,0,0,0,1
-2.088094274662659,1.32236391576829,-0.3001813002745312,0,0,0,1
-2.088094274662659,1.32236391576829,-0.3001813002745312,0,0,0,1
-2.088094274662659,1.32236391576829,-0.3001813002745312,0,0,0,1
2.0985074253373406,0.34890456576829015,-0.14894393027453123,0,0,0,1
1.449365125337341,0.3450166157682901,-0.12313369027453124,0,0,0,1
1.449365125337341,0.3450166157682901,-0.12313369027453124,0,0,0,1
1.449365125337341,0.3450166157682901,-0.12313369027453124,0,0,0,1
0.46479752533734087,0.8288951657682901,0.23988946972546876,0,0,0,1
-1.418321074662659,-0.03654557123170987,-0.6256735802745311,0,0,0,1
-1.418321074662659,-0.03654557123170987,-0.6256735802745311,0,0,0,1
-1.418321074662659,-0.03654557123170987,-0.6256735802745311,0,0,0,1
0.9625477953373409,-1.02498578423171,-1.2533037802745313,0,0,0,1
0.25375033533734087,-0.6526055142317099,-0.9436726802745312,0,0,0,1
-0.4312071746626591,0.4222371757682901,0.6536280797254689,0,0,0,1
-0.4312071746626591,0.4222371757682901,0.6536280797254689,0,0,0,1
-0.4721474446626591,0.07854651576829014,0.8146387197254689,0,0,0,1
0.5089955253373409,-1.17434068423171,0.7974297697254689,0,0,0,1
-0.7080416746626591,0.5682310657682902,0.29889746972546877,0,0,0,1
-0.7080416746626591,0.5682310657682902,0.29889746972546877,0,0,0,1
-0.5054220746626591,0.7699759757682901,-0.10065642027453123,0,0,0,1
-0.20722721466265911,-1.25466258423171,-0.8073019102745311,0,0,0,1
-0.20722721466265911,-1.25466258423171,-0.8073019102745311,0,0,0,1
-0.20722721466265911,-1.25466258423171,-0.8073019102745311,0,0,0,1
1.325734625337341,-0.16339792423170987,0.4648526597254688,0,0,0,1
-0.20522735466265912,0.9553540157682902,0.7679617197254688,0,0,0,1
-0.38366267466265913,-0.42052618423170984,0.9524965197254688,0,0,0,1
-0.007729991062659106,-0.9693634842317098,0.6033404797254688,0,0,0,1
-0.007729991062659106,-0.9693634842317098,0.6033404797254688,0,0,0,1
0.023077504337340897,-0.47418705423170987,-0.054688485274531226,0,0,0,1
1.538648125337341,0.48284743576829015,-0.23064605027453122,0,0,0,1
1.538648125337341,0.48284743576829015,-0.23064605027453122,0,0,0,1
0.5276875653373408,1.17782061576829,-0.2544261502745312,0,0,0,1
-0.3495545246626591,1.54836201576829,-0.32227388027453124,0,0,0,1
0.11992503533734089,0.9455082557682901,0.015091149725468773,0,0,0,1
0.6178937253373409,0.08847007576829014,0.03888353572546878,0,0,0,1
0.9990535253373408,-0.25848020423170986,0.7538934597254688,0,0,0,1
1.043031225337341,1.05885911576829,1.1621090197254689,0,0,0,1
1.043031225337341,1.05885911576829,1.1621090197254689,0,0,0,1
1.680575825337341,0.9145291157682901,0.4142592797254688,0,0,0,1
1.680575825337341,0.9145291157682901,0.4142592797254688,0,0,0,1
1.250043425337341,0.9116328157682901,-0.12708274027453123,0,0,0,1
0.9689822253373409,1.02418831576829,-0.24749950027453124,0,0,0,1
0.9689822253373409,1.02418831576829,-0.24749950027453124,0,0,0,1
0.2187838753373409,0.6843244657682901,0.2884924197254688,0,0,0,1
0.4176602553373409,0.16042734576829012,1.2101619197254687,0,0,0,1
0.4176602553373409,0.16042734576829012,1.2101619197254687,0,0,0,1
1.628078925337341,0.27321644576829013,0.8675281197254688,0,0,0,1
1.321665325337341,-0.3199948442317099,0.47049911972546876,0,0,0,1
-0.6003556046626591,-1.2092091842317099,-0.14048460027453122,0,0,0,1
-0.6003556046626591,-1.2092091842317099,-0.14048460027453122,0,0,0,1
-0.9800581746626591,-0.26205978423170984,0.47284313972546876,0,0,0,1
-0.24332760466265912,0.33472086576829013,0.6600076197254688,0,0,0,1
0.3945231553373409,-0.42953692423170986,0.43211885972546876,0,0,0,1
-0.10363243466265912,-0.8834148442317099,0.3252209197254688,0,0,0,1
-0.10363243466265912,-0.8834148442317099,0.3252209197254688,0,0,0,1
-0.10363243466265912,-0.8834148442317099,0.3252209197254688,0,0,0,1
-1.090831274662659,-0.5218001442317098,0.08618828472546877,0,0,0,1
-1.090831274662659,-0.5218001442317098,0.08618828472546877,0,0,0,1
0.34435702533734086,-0.7291119542317098,-0.36152748027453124,0,0,0,1
1.349798725337341,-0.6728369842317099,0.048232999725468774,0,0,0,1
-0.5149712446626591,-0.5140934842317099,0.44087966972546877,0,0,0,1
-1.920216574662659,-0.2347873242317099,0.6342552597254688,0,0,0,1
-1.920216574662659,-0.2347873242317099,0.6342552597254688,0,0,0,1
-1.920216574662659,-0.2347873242317099,0.6342552597254688,0,0,0,1
-1.920216574662659,-0.2347873242317099,0.6342552597254688,0,0,0,1
0.7308030253373409,-0.03588200723170987,0.09672721972546877,0,0,0,1
2.427103525337341,0.02143492176829013,-0.10022691027453123,0,0,0,1
1.574949725337341,0.5856662557682901,0.14420028972546878,0,0,0,1
1.574949725337341,0.5856662557682901,0.14420028972546878,0,0,0,1
-0.09952019066265912,1.3039484157682901,0.48707911972546875,0,0,0,1
-0.09952019066265912,1.3039484157682901,0.48707911972546875,0,0,0,1
-0.4997067246626591,1.52554551576829,0.6682229197254689,0,0,0,1
1.750554625337341,0.6682852657682902,0.5694347197254688,0,0,0,1
1.609284925337341,0.23121489576829013,0.19179853972546876,0,0,0,1
1.226223525337341,-0.4306356142317099,0.15515657972546876,0,0,0,1
0.4813456653373409,-0.6039675842317098,0.011542407725468773,0,0,0,1
-1.234346874662659,0.10927494576829012,-0.23802677027453123,0,0,0,1
-2.128827574662659,0.6443965157682902,-0.04142573627453122,0,0,0,1
2.276653725337341,0.7851878557682902,0.38937391972546875,0,0,0,1
3.635310725337341,1.40888451576829,0.6477717197254689,0,0,0,1
3.222086425337341,2.12622551576829,0.09178968972546878,0,0,0,1
3.222086425337341,2.12622551576829,0.09178968972546878,0,0,0,1
2.1352162253373406,1.02947521576829,-0.8341123202745312,0,0,0,1
2.1352162253373406,1.02947521576829,-0.8341123202745312,0,0,0,1
-0.8298096746626591,-0.38056678423170986,-0.9155490802745312,0,0,0,1
-4.003263974662659,-0.8419066442317099,0.12818440972546877,0,0,0,1
-4.003263974662659,-0.8419066442317099,0.12818440972546877,0,0,0,1
0.9196963253373409,0.23957891576829013,1.806856519725469,0,0,0,1
2.929619325337341,0.2866606857682901,1.2535474197254688,0,0,0,1
2.929619325337341,0.2866606857682901,1.2535474197254688,0,0,0,1
3.5658460253373407,-2.28191258423171,-0.24447861027453122,0,0,0,1
0.7681040953373409,-2.67250468423171,-0.6879835402745311,0,0,0,1
-2.2159857746626592,-1.4923066842317099,-0.06757381727453123,0,0,0,1
-3.550460274662659,0.7863308157682901,0.8377858197254688,0,0,0,1
-3.550460274662659,0.7863308157682901,0.8377858197254688,0,0,0,1
-2.380421174662659,2.59710621576829,1.8213689197254688,0,0,0,1
-0.6781773446626591,2.67167351576829,1.9303232197254687,0,0,0,1
-0.6781773446626591,2.67167351576829,1.9303232197254687,0,0,0,1
2.640775225337341,-2.82188268423171,-0.25944010027453124,0,0,0,1
0.7297778253373409,-1.91221018423171,-0.26795426027453123,0,0,0,1
0.7297778253373409,-1.91221018423171,-0.26795426027453123,0,0,0,1
0.7297778253373409,-1.91221018423171,-0.26795426027453123,0,0,0,1
0.2483983253373409,1.0707341157682901,0.20028051972546876,0,0,0,1
0.1316065953373409,-1.74636548423171,0.14241691972546877,0,0,0,1
-0.5465283246626591,-0.7359019842317098,0.7235492197254688,0,0,0,1
-0.4959997946626591,-0.48029224423170985,0.40585221972546875,0,0,0,1
2.8134932253373406,0.27833588576829016,-0.5569039802745311,0,0,0,1
2.8134932253373406,0.27833588576829016,-0.5569039802745311,0,0,0,1
2.155628725337341,0.6771117657682901,-1.0599362802745311,0,0,0,1
2.155628725337341,0.6771117657682901,-1.0599362802745311,0,0,0,1
-3.690199274662659,-0.5108005842317098,-0.39612296027453126,0,0,0,1
-3.690199274662659,-0.5108005842317098,-0.39612296027453126,0,0,0,1
-3.690199274662659,-0.5108005842317098,-0.39612296027453126,0,0,0,1
-3.690199274662659,-0.5108005842317098,-0.39612296027453126,0,0,0,1
-0.9848599246626591,-1.47922128423171,1.7791945197254688,0,0,0,1
-0.0904335846626591,-0.6374815542317098,1.2471797197254688,0,0,0,1
1.487494925337341,0.08126853576829013,0.4364518797254688,0,0,0,1
1.487494925337341,0.08126853576829013,0.4364518797254688,0,0,0,1
1.687548225337341,0.06722234576829013,-0.08710662027453123,0,0,0,1
1.687548225337341,0.06722234576829013,-0.08710662027453123,0,0,0,1
0.5744071253373408,-0.9814803842317098,-0.38368371027453124,0,0,0,1
0.5744071253373408,-0.9814803842317098,-0.38368371027453124,0,0,0,1
1.265458625337341,-0.43325714423170986,0.11456045372546877,0,0,0,1
1.505815025337341,-0.12368836423170988,0.7719411497254688,0,0,0,1
1.505815025337341,-0.12368836423170988,0.7719411497254688,0,0,0,1
-1.723255574662659,-1.28965658423171,1.3923690197254688,0,0,0,1
-0.6704277746626591,-1.11813258423171,1.351872219725469,0,0,0,1
-0.6704277746626591,-1.11813258423171,1.351872219725469,0,0,0,1
-0.6704277746626591,-1.11813258423171,1.351872219725469,0,0,0,1
1.586530225337341,-0.7805361842317099,1.024397919725469,0,0,0,1
2.217076725337341,0.7109909157682901,0.22629638972546878,0,0,0,1
2.172834925337341,0.8523791657682901,-0.028968961274531226,0,0,0,1
1.485859425337341,-0.027376335231709868,-0.11050752027453123,0,0,0,1
