acc_x,acc_y,acc_z,gyro_x,gyro_y,gyro_z,label
-0.35452984466265913,-0.15738202423170988,0.09875139472546877,0,0,0,1
1.306036525337341,-0.03367934823170987,0.054106739725468776,0,0,0,1
1.665096725337341,-0.05999336823170987,-0.34064778027453124,0,0,0,1
1.354272425337341,0.2436517357682901,-0.050100656274531224,0,0,0,1
-0.2633766946626591,0.6846796457682901,-0.004033894874531225,0,0,0,1
-2.099127774662659,1.00731001576829,0.4791325197254688,0,0,0,1
-2.099127774662659,1.00731001576829,0.4791325197254688,0,0,0,1
-1.634766074662659,0.7039285157682902,0.24771156972546876,0,0,0,1
0.3822064553373409,-0.12009741023170988,0.20130046972546878,0,0,0,1
2.834716325337341,-0.9502892342317099,-0.6329875802745312,0,0,0,1
2.834716325337341,-0.9502892342317099,-0.6329875802745312,0,0,0,1
1.547853925337341,-0.1573393442317099,-0.3204449802745312,0,0,0,1
1.547853925337341,-0.1573393442317099,-0.3204449802745312,0,0,0,1
-3.227971974662659,2.0639093157682904,0.5580301197254688,0,0,0,1
-3.227971974662659,2.0639093157682904,0.5580301197254688,0,0,0,1
-1.894605574662659,0.5971364157682901,0.5792529197254688,0,0,0,1
0.38835002533734087,-0.47495774423170983,0.5871544797254689,0,0,0,1
1.640514825337341,-0.1814590842317099,0.044050065725468775,0,0,0,1
4.113417125337341,0.46344103576829015,-1.2148032802745312,0,0,0,1
2.3531985253373406,0.16133934576829012,-1.6622626802745313,0,0,0,1
-1.533508774662659,-0.49428142423170984,-0.26172736027453125,0,0,0,1
-4.001213074662659,-0.1877374142317099,0.005586771725468775,0,0,0,1
-4.001213074662659,-0.1877374142317099,0.005586771725468775,0,0,0,1
-4.001213074662659,-0.1877374142317099,0.005586771725468775,0,0,0,1
-3.402818274662659,0.17900653576829012,0.6727074697254688,0,0,0,1
0.9695830253373409,0.09409886576829013,0.9638923197254688,0,0,0,1
0.9695830253373409,0.09409886576829013,0.9638923197254688,0,0,0,1
4.010717725337341,0.19409919576829013,-0.7405278802745312,0,0,0,1
4.010717725337341,0.19409919576829013,-0.7405278802745312,0,0,0,1
-3.7989782746626592,-0.0007786716317098714,-0.7411346202745311,0,0,0,1
-3.7989782746626592,-0.0007786716317098714,-0.7411346202745311,0,0,0,1
-3.9408492746626593,0.8798684157682901,0.4740039397254688,0,0,0,1
1.397296425337341,1.43657011576829,1.1473579197254689,0,0,0,1
1.397296425337341,1.43657011576829,1.1473579197254689,0,0,0,1
2.453919925337341,-0.7642676842317099,-1.0919179802745311,0,0,0,1
2.453919925337341,-0.7642676842317099,-1.0919179802745311,0,0,0,1
0.8567300253373409,0.20685430576829011,-0.6629945802745312,0,0,0,1
-0.9732975746626591,0.5904339757682902,-0.5258698802745312,0,0,0,1
-0.9732975746626591,0.5904339757682902,-0.5258698802745312,0,0,0,1
-1.592936974662659,-1.0642000842317099,0.36358889972546876,0,0,0,1
-1.592936974662659,-1.0642000842317099,0.36358889972546876,0,0,0,1
1.298517725337341,-0.6614023842317098,0.5385614197254688,0,0,0,1
3.442517725337341,-0.007511180231709871,0.2622170197254688,0,0,0,1
3.442517725337341,-0.007511180231709871,0.2622170197254688,0,0,0,1
3.1449132253373406,-0.6384420842317099,-0.4272903502745312,0,0,0,1
0.9992490253373408,-1.00299488423171,-1.0020804802745313,0,0,0,1
-2.3507160746626594,-0.1560338242317099,-0.8085698202745312,0,0,0,1
-4.7476662746626594,0.8682376157682902,-0.10011873027453123,0,0,0,1
-3.718987474662659,0.7143259857682901,0.04768052572546878,0,0,0,1
-0.5450472746626591,0.34835978576829013,0.3379447397254688,0,0,0,1
-0.5450472746626591,0.34835978576829013,0.3379447397254688,0,0,0,1
2.1339307253373407,0.07951535576829014,0.22636713972546876,0,0,0,1
3.621747525337341,0.31914771576829015,0.40464221972546877,0,0,0,1
3.4547067253373407,0.6293292157682902,-0.6697510802745311,0,0,0,1
2.5301108253373408,0.4793940957682901,-1.018620080274531,0,0,0,1
2.5301108253373408,0.4793940957682901,-1.018620080274531,0,0,0,1
-0.12084148466265911,-0.6232825342317099,-0.5251842502745312,0,0,0,1
-3.5953664746626592,-0.49688432423170986,-0.30805078027453126,0,0,0,1
-2.546596474662659,0.7187166157682902,1.2929419197254688,0,0,0,1
-2.546596474662659,0.7187166157682902,1.2929419197254688,0,0,0,1
-2.546596474662659,0.7187166157682902,1.2929419197254688,0,0,0,1
3.1002841253373408,0.26816921576829017,-0.07492003027453123,0,0,0,1
3.2186971253373406,-1.24422298423171,-1.0462930802745312,0,0,0,1
3.2186971253373406,-1.24422298423171,-1.0462930802745312,0,0,0,1
0.23410369533734088,-1.48615958423171,-0.8079291802745312,0,0,0,1
-3.598018174662659,-0.6489786842317099,-0.38638018027453125,0,0,0,1
-4.613519674662659,0.046772765768290134,0.4924274197254687,0,0,0,1
-4.613519674662659,0.046772765768290134,0.4924274197254687,0,0,0,1
-1.922543974662659,0.34858276576829017,1.4174005197254689,0,0,0,1
0.3943371953373409,1.17731321576829,1.240058419725469,0,0,0,1
1.741535725337341,1.79450761576829,-0.012898714874531226,0,0,0,1
1.741535725337341,1.79450761576829,-0.012898714874531226,0,0,0,1
2.8533654253373406,-1.99473478423171,-0.6468232802745312,0,0,0,1
-3.009267274662659,-1.02344938423171,-0.7285808802745312,0,0,0,1
-3.009267274662659,-1.02344938423171,-0.7285808802745312,0,0,0,1
-3.009267274662659,-1.02344938423171,-0.7285808802745312,0,0,0,1
-2.796076774662659,0.9300534157682901,0.3630470897254688,0,0,0,1
2.606120625337341,-0.32220463423170986,-0.22661689027453122,0,0,0,1
1.919228125337341,-0.6311516842317099,-0.7823206502745311,0,0,0,1
1.919228125337341,-0.6311516842317099,-0.7823206502745311,0,0,0,1
1.919228125337341,-0.6311516842317099,-0.7823206502745311,0,0,0,1
-3.094692274662659,0.09562273576829013,-0.5267618802745312,0,0,0,1
-2.7109369746626593,-0.6705583842317099,-0.32679805027453124,0,0,0,1
-2.7109369746626593,-0.6705583842317099,-0.32679805027453124,0,0,0,1
-0.9910397346626592,-0.5703353842317098,0.24961941972546875,0,0,0,1
1.938873725337341,-1.41120458423171,-0.0032371595745312254,0,0,0,1
1.938873725337341,-1.41120458423171,-0.0032371595745312254,0,0,0,1
-0.08905456866265911,-0.21017895423170987,-0.09059861427453123,0,0,0,1
-0.08905456866265911,-0.21017895423170987,-0.09059861427453123,0,0,0,1
-0.9078078146626591,1.63413991576829,0.39802601972546875,0,0,0,1
-0.9078078146626591,1.63413991576829,0.39802601972546875,0,0,0,1
-0.9078078146626591,1.63413991576829,0.39802601972546875,0,0,0,1
-0.3798146046626591,2.1641509157682903,-0.45195298027453124,0,0,0,1
0.9517979753373409,-1.33748648423171,-1.864958780274531,0,0,0,1
1.522832425337341,-1.16035248423171,-0.9518010802745311,0,0,0,1
0.1758256153373409,0.9726016657682901,-0.3195873802745312,0,0,0,1
-0.6327738746626591,1.5778358157682901,0.5129933197254688,0,0,0,1
-0.024818881662659106,0.1343934757682901,0.8103010197254689,0,0,0,1
-0.024818881662659106,0.1343934757682901,0.8103010197254689,0,0,0,1
-0.06330536166265911,-1.74400848423171,0.7807405197254689,0,0,0,1
-0.6741261346626591,-2.5282415842317096,0.3875531197254688,0,0,0,1
-1.204341374662659,-2.41645688423171,0.47135018972546877,0,0,0,1
-1.738810974662659,-1.17990978423171,0.3339577197254688,0,0,0,1
-1.738810974662659,-1.17990978423171,0.3339577197254688,0,0,0,1
1.831699825337341,0.9669452457682901,0.035953907725468776,0,0,0,1
1.831699825337341,0.9669452457682901,0.035953907725468776,0,0,0,1
2.318038525337341,0.9892090757682901,-1.180663580274531,0,0,0,1
1.686975025337341,0.5752530157682901,-1.577738080274531,0,0,0,1
0.1620679053373409,-0.2323074742317099,-1.0197675802745312,0,0,0,1
0.1620679053373409,-0.2323074742317099,-1.0197675802745312,0,0,0,1
-2.223319074662659,0.7679444757682902,0.23636417972546878,0,0,0,1
-2.431954274662659,2.20309191576829,1.234600319725469,0,0,0,1
-2.431954274662659,2.20309191576829,1.234600319725469,0,0,0,1
0.7509532253373409,2.7973433157682903,2.716551519725469,0,0,0,1
0.7509532253373409,2.7973433157682903,2.716551519725469,0,0,0,1
2.6826129253373407,0.44660593576829016,-0.09547886427453123,0,0,0,1
2.076393725337341,-1.91136998423171,-1.2579000802745313,0,0,0,1
2.076393725337341,-1.91136998423171,-1.2579000802745313,0,0,0,1
-2.331159574662659,-2.4914054842317097,-0.7522716202745312,0,0,0,1
-2.331159574662659,-2.4914054842317097,-0.7522716202745312,0,0,0,1
-3.919927074662659,-0.18711752423170988,0.6430979197254688,0,0,0,1
-2.2793312746626593,1.58207181576829,2.0527374197254686,0,0,0,1
1.256762025337341,-0.30291978423170984,0.25466441972546877,0,0,0,1
1.256762025337341,-0.30291978423170984,0.25466441972546877,0,0,0,1
0.4589905853373409,0.10681252576829013,-1.4053485802745311,0,0,0,1
0.4589905853373409,0.10681252576829013,-1.4053485802745311,0,0,0,1
0.4589905853373409,0.10681252576829013,-1.4053485802745311,0,0,0,1
-1.876004174662659,0.8938227157682902,-1.233977780274531,0,0,0,1
-1.572694274662659,0.8466728557682901,-0.7125889402745311,0,0,0,1
-0.5008311146626591,1.29050871576829,-0.4252052602745312,0,0,0,1
-0.44256257466265914,1.38423481576829,-0.6590104802745311,0,0,0,1
-0.44256257466265914,1.38423481576829,-0.6590104802745311,0,0,0,1
2.4438624253373407,-0.5702886442317099,-0.32050918027453124,0,0,0,1
-1.769010974662659,-0.49299753423170983,0.4732633497254688,0,0,0,1
-1.769010974662659,-0.49299753423170983,0.4732633497254688,0,0,0,1
1.741994425337341,1.09976821576829,1.635111619725469,0,0,0,1
1.741994425337341,1.09976821576829,1.635111619725469,0,0,0,1
0.22561790533734088,-0.6199299842317099,-0.6593343302745311,0,0,0,1
0.22561790533734088,-0.6199299842317099,-0.6593343302745311,0,0,0,1
0.0590529603373409,-1.92134508423171,-0.8796020802745311,0,0,0,1
-1.021455274662659,-0.9807102842317098,-0.47104868027453123,0,0,0,1
-1.021455274662659,-0.9807102842317098,-0.47104868027453123,0,0,0,1
-1.532618074662659,1.57365011576829,0.26501163972546876,0,0,0,1
1.762635725337341,0.2977191357682901,0.0039296437254687745,0,0,0,1
2.8123364253373406,-1.24875648423171,-0.16848734027453122,0,0,0,1
1.458199025337341,-1.72674008423171,-0.4139871302745312,0,0,0,1
1.458199025337341,-1.72674008423171,-0.4139871302745312,0,0,0,1
1.458199025337341,-1.72674008423171,-0.4139871302745312,0,0,0,1
0.6148171553373409,0.43024485576829014,0.6251531497254689,0,0,0,1
-1.153727974662659,2.21024591576829,0.8361374197254688,0,0,0,1
-2.512900774662659,1.9297569157682901,0.6775736197254688,0,0,0,1
-1.142767374662659,-0.7280715542317099,-0.28557238027453125,0,0,0,1
0.9653096253373409,-2.1646850842317096,-0.5893904802745312,0,0,0,1
1.521872025337341,-0.6330723842317099,-0.7527987802745312,0,0,0,1
1.521872025337341,-0.6330723842317099,-0.7527987802745312,0,0,0,1
1.146733725337341,0.9187812157682902,-0.04893973627453122,0,0,0,1
0.5068268953373409,0.11345826576829013,-0.3315707202745312,0,0,0,1
-1.147540574662659,-0.5588795842317098,0.17991107972546877,0,0,0,1
-1.932324874662659,-0.2091037142317099,0.6477992197254688,0,0,0,1
-0.8019947746626591,0.6303515657682901,1.1241383197254688,0,0,0,1
-0.8019947746626591,0.6303515657682901,1.1241383197254688,0,0,0,1
2.2828002253373407,-0.15785224423170988,0.03427394972546878,0,0,0,1
1.632462025337341,-0.5250529842317099,-0.43138722027453125,0,0,0,1
0.7664418253373408,-0.12939806423170988,-0.9607500802745311,0,0,0,1
0.7664418253373408,-0.12939806423170988,-0.9607500802745311,0,0,0,1
0.038714901337340894,0.8076364557682901,-0.6666256502745311,0,0,0,1
-1.466284274662659,1.01202421576829,-0.21043030027453122,0,0,0,1
-2.729789274662659,0.12597459576829012,-0.46916078027453123,0,0,0,1
-1.366440274662659,-1.3154048842317099,-0.16701672027453124,0,0,0,1
1.319421325337341,-1.5803791842317099,0.31925936972546876,0,0,0,1
1.827873725337341,1.2688935157682901,1.2681090197254687,0,0,0,1
0.8673768253373408,-0.36759771423170984,-0.5552275502745312,0,0,0,1
-1.172227374662659,-0.9603479842317099,-0.9909184302745312,0,0,0,1
-2.668674474662659,-0.16941584423170988,-1.096544980274531,0,0,0,1
-2.668674474662659,-0.16941584423170988,-1.096544980274531,0,0,0,1
-1.982845274662659,0.41457671576829014,-0.10046014027453123,0,0,0,1
-0.3885826946626591,0.6225020157682901,0.37380871972546875,0,0,0,1
-0.3885826946626591,0.6225020157682901,0.37380871972546875,0,0,0,1
1.422016625337341,0.5920647557682901,0.26046227972546876,0,0,0,1
3.0561737253373407,-0.5690166842317098,-0.42246506027453123,0,0,0,1
1.001794325337341,-0.7921797842317099,-0.8969139202745312,0,0,0,1
1.001794325337341,-0.7921797842317099,-0.8969139202745312,0,0,0,1
-1.064650074662659,-0.8713901442317099,0.2669516797254688,0,0,0,1
-2.461301774662659,0.1736435457682901,0.9706891197254688,0,0,0,1
-2.461301774662659,0.1736435457682901,0.9706891197254688,0,0,0,1
-2.461301774662659,0.1736435457682901,0.9706891197254688,0,0,0,1
1.972590025337341,0.05087055576829013,0.31535121972546876,0,0,0,1
2.374987125337341,-0.9640465842317099,-1.0761499802745311,0,0,0,1
1.024579525337341,-0.5760742242317098,-1.1013901802745312,0,0,0,1
1.024579525337341,-0.5760742242317098,-1.1013901802745312,0,0,0,1
-2.768336774662659,1.5711821157682901,0.24416875972546875,0,0,0,1
-0.8833164746626591,-0.7211237842317099,0.7872462597254688,0,0,0,1
1.576480425337341,-0.8419291242317098,0.3245889797254688,0,0,0,1
2.330909225337341,-0.14861155423170988,-0.3026304602745312,0,0,0,1
2.330909225337341,-0.14861155423170988,-0.3026304602745312,0,0,0,1
2.653265525337341,-0.30727563423170984,-0.44572082027453125,0,0,0,1
2.653265525337341,-0.30727563423170984,-0.44572082027453125,0,0,0,1
0.4125781253373409,-0.04298846123170987,0.10292252972546877,0,0,0,1
-3.215544674662659,1.94705311576829,0.2646568197254688,0,0,0,1
-3.1201438746626593,2.2280429157682904,0.41546051972546877,0,0,0,1
-3.1201438746626593,2.2280429157682904,0.41546051972546877,0,0,0,1
0.3862233253373409,0.6076093157682901,-0.8183470802745312,0,0,0,1
1.352839025337341,-1.6562919842317099,-0.32931325027453123,0,0,0,1
1.352839025337341,-1.6562919842317099,-0.32931325027453123,0,0,0,1
1.964564825337341,-0.44522250423170984,0.7161900697254688,0,0,0,1
1.964564825337341,-0.44522250423170984,0.7161900697254688,0,0,0,1
-1.575546774662659,2.53223781576829,0.37262151972546875,0,0,0,1
-0.7367901746626591,0.40494467576829013,0.5371007197254688,0,0,0,1
-0.14980171466265912,-1.62831128423171,-0.33767370027453125,0,0,0,1
0.07130576533734088,-1.36316308423171,-0.8719261802745312,0,0,0,1
0.07130576533734088,-1.36316308423171,-0.8719261802745312,0,0,0,1
1.564814125337341,-0.04083247123170987,-0.34304550027453123,0,0,0,1
1.848368225337341,1.03033051576829,0.048970012725468776,0,0,0,1
1.848368225337341,1.03033051576829,0.048970012725468776,0,0,0,1
