acc_x,acc_y,acc_z,gyro_x,gyro_y,gyro_z,label
0.2377600853373409,0.35433446576829014,-1.115124580274531,0,0,0,1
0.2377600853373409,0.35433446576829014,-1.115124580274531,0,0,0,1
3.1365914253373406,-0.5789116842317099,-0.3737915502745312,0,0,0,1
3.1365914253373406,-0.5789116842317099,-0.3737915502745312,0,0,0,1
2.531492725337341,-0.09927324423170987,0.10304352472546877,0,0,0,1
0.5382418753373409,0.5392678557682902,-0.06675157027453123,0,0,0,1
-2.2419709746626593,0.5595618657682901,0.18520449972546876,0,0,0,1
-2.873570874662659,-0.06278095823170987,-0.033334465274531225,0,0,0,1
-0.23615311466265912,-1.59435428423171,0.04146942372546878,0,0,0,1
-0.23615311466265912,-1.59435428423171,0.04146942372546878,0,0,0,1
2.945622025337341,-0.18378631423170988,-0.43534503027453125,0,0,0,1
3.015137225337341,0.44022207576829014,-0.12984869027453122,0,0,0,1
1.341405425337341,1.16063481576829,-0.6835177802745311,0,0,0,1
-0.7144446246626591,1.50216011576829,0.12786909972546878,0,0,0,1
-2.0443806746626594,1.25615681576829,0.18596174972546878,0,0,0,1
-1.870991674662659,0.03499056576829013,-0.5664254102745312,0,0,0,1
-1.870991674662659,0.03499056576829013,-0.5664254102745312,0,0,0,1
1.866941925337341,-0.9165807142317098,-1.287039880274531,0,0,0,1
2.443279725337341,-0.18938313423170988,-0.5440210802745312,0,0,0,1
0.6023287953373408,0.8199596557682901,-0.19257173027453123,0,0,0,1
-1.902114874662659,0.2570144757682901,0.09473862972546877,0,0,0,1
-1.902114874662659,0.2570144757682901,0.09473862972546877,0,0,0,1
-1.028876774662659,-0.7694950542317098,0.15005340972546877,0,0,0,1
1.659446225337341,0.4654850857682901,0.24049236972546878,0,0,0,1
2.8342557253373406,1.66177491576829,-0.22969934027453123,0,0,0,1
-0.9169964746626591,-0.25637341423170984,-0.8714128802745311,0,0,0,1
-0.9169964746626591,-0.25637341423170984,-0.8714128802745311,0,0,0,1
-0.9169964746626591,-0.25637341423170984,-0.8714128802745311,0,0,0,1
-2.1844219746626594,-1.30472518423171,-0.6590602102745312,0,0,0,1
-2.1844219746626594,-1.30472518423171,-0.6590602102745312,0,0,0,1
-2.1844219746626594,-1.30472518423171,-0.6590602102745312,0,0,0,1
-2.1844219746626594,-1.30472518423171,-0.6590602102745312,0,0,0,1
-0.9174361046626591,-1.08600258423171,-0.7713465402745312,0,0,0,1
-0.9174361046626591,-1.08600258423171,-0.7713465402745312,0,0,0,1
-2.0086422746626593,0.7376218157682901,0.42235558972546877,0,0,0,1
-0.6985935746626591,-1.54819508423171,-1.6704711802745311,0,0,0,1
-0.6985935746626591,-1.54819508423171,-1.6704711802745311,0,0,0,1
-0.6985935746626591,-1.54819508423171,-1.6704711802745311,0,0,0,1
-1.886970074662659,1.35245791576829,0.06199255472546878,0,0,0,1
3.5391154253373407,1.32801021576829,0.6589267497254688,0,0,0,1
2.2176614253373406,0.40926753576829017,-0.004052014674531226,0,0,0,1
-1.829365674662659,-0.5609110842317099,-0.7510495802745312,0,0,0,1
-1.829365674662659,-0.5609110842317099,-0.7510495802745312,0,0,0,1
-1.829365674662659,-0.5609110842317099,-0.7510495802745312,0,0,0,1
1.525256625337341,-0.5922745242317099,-0.7330323802745312,0,0,0,1
1.525256625337341,-0.5922745242317099,-0.7330323802745312,0,0,0,1
2.4518771253373406,-1.05299108423171,-1.1343168802745311,0,0,0,1
2.4518771253373406,-1.05299108423171,-1.1343168802745311,0,0,0,1
2.1301961253373407,-0.7112056842317098,-1.1035530802745313,0,0,0,1
0.05216933933734089,0.9368976557682901,0.3220191597254688,0,0,0,1
-2.478101674662659,1.19625641576829,-0.24615744027453124,0,0,0,1
-2.478101674662659,1.19625641576829,-0.24615744027453124,0,0,0,1
-1.771645074662659,-1.06859528423171,-0.8363810802745312,0,0,0,1
-1.771645074662659,-1.06859528423171,-0.8363810802745312,0,0,0,1
-1.771645074662659,-1.06859528423171,-0.8363810802745312,0,0,0,1
-0.1692290146626591,-0.25759742423170984,-0.07547560527453123,0,0,0,1
1.048268825337341,1.36049911576829,0.15503498972546878,0,0,0,1
2.8155579253373406,1.67496111576829,0.6631935197254688,0,0,0,1
2.427393425337341,0.9853021157682902,0.10837873972546877,0,0,0,1
2.427393425337341,0.9853021157682902,0.10837873972546877,0,0,0,1
-1.178298474662659,-1.09348768423171,-1.1152284802745311,0,0,0,1
-2.1146907746626593,-0.8215686842317098,-0.3762372402745312,0,0,0,1
-2.1146907746626593,-0.8215686842317098,-0.3762372402745312,0,0,0,1
-2.1146907746626593,-0.8215686842317098,-0.3762372402745312,0,0,0,1
3.903951225337341,1.33971661576829,0.12842082972546878,0,0,0,1
3.903951225337341,1.33971661576829,0.12842082972546878,0,0,0,1
2.8815360253373408,-0.4298919842317099,-1.4360125802745312,0,0,0,1
2.8815360253373408,-0.4298919842317099,-1.4360125802745312,0,0,0,1
-1.958511774662659,-2.09052108423171,0.30144517972546875,0,0,0,1
-1.958511774662659,-2.09052108423171,0.30144517972546875,0,0,0,1
-2.590679174662659,1.21000531576829,0.7683095197254688,0,0,0,1
-0.4683775746626591,2.45929591576829,1.5198600197254688,0,0,0,1
2.379258725337341,1.5520005157682901,0.6440293197254688,0,0,0,1
2.1808324253373406,-0.5734195542317099,-0.09827724027453123,0,0,0,1
2.1808324253373406,-0.5734195542317099,-0.09827724027453123,0,0,0,1
0.19560004533734088,-0.8768574842317098,-0.5599264202745312,0,0,0,1
0.3878283653373409,0.9578989157682901,-0.5906147802745312,0,0,0,1
0.48457482533734086,2.98448091576829,-0.8402070802745312,0,0,0,1
1.023782225337341,3.0650442157682902,-1.0715076802745311,0,0,0,1
1.076969625337341,0.7584679157682901,-0.9645459802745312,0,0,0,1
-1.239889574662659,-1.19037458423171,-0.5045655102745312,0,0,0,1
-3.312294474662659,-1.27210758423171,-0.35983238027453124,0,0,0,1
-1.778248274662659,0.02452440876829013,0.47868391972546875,0,0,0,1
1.326548125337341,1.03565811576829,0.9629898197254688,0,0,0,1
2.576811325337341,1.78029801576829,0.6225151697254688,0,0,0,1
2.826386925337341,1.0497183157682901,-0.27617994027453124,0,0,0,1
3.138777225337341,-0.3804647842317099,-1.162323980274531,0,0,0,1
1.451908625337341,-0.5553589842317098,-1.4889740802745313,0,0,0,1
1.451908625337341,-0.5553589842317098,-1.4889740802745313,0,0,0,1
-2.2774843746626594,0.6324310157682902,-0.8483307802745311,0,0,0,1
-2.2774843746626594,0.6324310157682902,-0.8483307802745311,0,0,0,1
-0.11864136066265911,-0.29227010423170985,-0.12250677027453123,0,0,0,1
0.3364453453373409,-0.44843445423170986,-0.06159553027453122,0,0,0,1
0.3364453453373409,-0.44843445423170986,-0.06159553027453122,0,0,0,1
5.0423093253373406,-2.1547154842317098,0.17905971972546877,0,0,0,1
0.07760955533734089,-0.20335148423170987,-0.8009075202745312,0,0,0,1
0.07760955533734089,-0.20335148423170987,-0.8009075202745312,0,0,0,1
-2.064073074662659,0.35012354576829013,0.041278807725468776,0,0,0,1
-2.6722182746626593,1.02215221576829,-0.7554653802745311,0,0,0,1
-2.6722182746626593,1.02215221576829,-0.7554653802745311,0,0,0,1
-0.3211960746626591,1.11058241576829,-0.7386536302745311,0,0,0,1
2.6403232253373408,1.04719101576829,-1.0449819802745313,0,0,0,1
3.5842242253373406,1.52431821576829,-0.48317322027453125,0,0,0,1
3.5842242253373406,1.52431821576829,-0.48317322027453125,0,0,0,1
2.511915725337341,0.6001738457682901,-0.9766876402745311,0,0,0,1
2.511915725337341,0.6001738457682901,-0.9766876402745311,0,0,0,1
-5.400629274662659,0.7359363157682901,-0.49702516027453125,0,0,0,1
-5.400629274662659,0.7359363157682901,-0.49702516027453125,0,0,0,1
-2.109948174662659,-0.40952373423170985,1.3418836197254689,0,0,0,1
3.0473257253373407,-0.5844918842317098,-0.16506353027453122,0,0,0,1
3.0473257253373407,-0.5844918842317098,-0.16506353027453122,0,0,0,1
5.979346725337341,-0.9429321842317099,-0.3582944602745312,0,0,0,1
5.979346725337341,-0.9429321842317099,-0.3582944602745312,0,0,0,1
5.666006725337341,-0.8304072442317099,-0.9228485802745312,0,0,0,1
2.612496825337341,0.15026675576829013,-1.9754718802745312,0,0,0,1
-1.198664174662659,0.5148453157682902,-1.6287166802745312,0,0,0,1
-1.198664174662659,0.5148453157682902,-1.6287166802745312,0,0,0,1
-4.8626902746626595,0.9077457157682901,0.8038180797254688,0,0,0,1
-0.3988032146626591,0.2138732657682901,1.3056216197254689,0,0,0,1
-0.3988032146626591,0.2138732657682901,1.3056216197254689,0,0,0,1
3.391115725337341,-0.49549992423170985,-0.6279660202745312,0,0,0,1
5.739539725337341,-1.39035768423171,-0.3683152502745312,0,0,0,1
5.739539725337341,-1.39035768423171,-0.3683152502745312,0,0,0,1
4.491443125337341,-1.19475168423171,-1.0043553802745313,0,0,0,1
4.491443125337341,-1.19475168423171,-1.0043553802745313,0,0,0,1
-2.2831692746626593,1.41237831576829,0.8604687697254688,0,0,0,1
-2.2831692746626593,1.41237831576829,0.8604687697254688,0,0,0,1
1.504293925337341,1.01433281576829,-0.16443774027453123,0,0,0,1
-2.2831692746626593,1.01433281576829,-0.16443774027453123,0,0,0,1
4.43155622533734,0.19218398576829013,-0.15603498027453122,0,0,0,1
-5.496424274662659,-1.14718158423171,-0.05206057627453122,0,0,0,1
-5.496424274662659,-1.14718158423171,-0.05206057627453122,0,0,0,1
-5.496424274662659,-1.14718158423171,-0.05206057627453122,0,0,0,1
-0.08029793066265911,-0.4273063342317099,1.5442497197254688,0,0,0,1
3.4348893253373407,0.8036251157682901,0.6177521597254688,0,0,0,1
4.49799302533734,1.1421080157682901,-0.7339494802745312,0,0,0,1
4.49799302533734,1.1421080157682901,-0.7339494802745312,0,0,0,1
-6.67700767466266,1.5223717157682901,-1.4727149802745312,0,0,0,1
-4.58548167466266,1.80257451576829,-0.28099665027453125,0,0,0,1
-4.58548167466266,1.80257451576829,-0.28099665027453125,0,0,0,1
1.996532925337341,-0.36414323423170986,0.16280766972546876,0,0,0,1
3.510366925337341,-1.10998958423171,0.12861725972546878,0,0,0,1
4.738627725337341,-1.54002878423171,0.04721173472546878,0,0,0,1
4.106771725337341,-1.6138995842317099,-0.5389538802745312,0,0,0,1
0.9864154253373408,-0.8911320842317099,-1.462853680274531,0,0,0,1
0.9864154253373408,-0.8911320842317099,-1.462853680274531,0,0,0,1
-4.589558574662659,1.74894171576829,-0.14461020027453123,0,0,0,1
-2.4951433746626592,2.1316128157682903,-0.17888162027453122,0,0,0,1
-2.4951433746626592,2.1316128157682903,-0.17888162027453122,0,0,0,1
3.674123325337341,-1.2786876842317099,-1.1323794802745313,0,0,0,1
5.431023125337341,-2.0088474842317097,-1.0277518802745311,0,0,0,1
1.453101625337341,-1.17028128423171,-1.660606180274531,0,0,0,1
1.453101625337341,-1.17028128423171,-1.660606180274531,0,0,0,1
-3.9669088746626593,-1.54129228423171,0.8187435597254689,0,0,0,1
-6.606755674662659,0.7556379657682901,1.1222927197254688,0,0,0,1
-4.22554827466266,1.99633121576829,1.6905196197254688,0,0,0,1
0.8915419753373409,1.05665561576829,1.443186019725469,0,0,0,1
4.332209125337341,-0.43882668423170984,-0.43188724027453124,0,0,0,1
3.986542225337341,-0.47564924423170984,-1.9639642802745312,0,0,0,1
1.799171925337341,-0.8890409242317099,-2.9894449802745315,0,0,0,1
-2.278956374662659,-0.8283271842317098,-1.3373510802745312,0,0,0,1
-6.209970974662659,0.1401016157682901,-0.24744901027453123,0,0,0,1
-6.295805874662659,0.3208153457682901,1.1807593197254689,0,0,0,1
-2.9089955746626592,0.47115697576829013,1.6564478197254688,0,0,0,1
3.663011125337341,0.6005409157682902,0.20194580972546877,0,0,0,1
5.391518125337341,-0.007553559231709871,0.23732163972546877,0,0,0,1
5.391518125337341,-0.007553559231709871,0.23732163972546877,0,0,0,1
2.8363404253373408,-0.43955765423170984,-1.700886780274531,0,0,0,1
2.8363404253373408,-0.43955765423170984,-1.700886780274531,0,0,0,1
-0.5656065746626591,0.19050143576829012,-1.842221380274531,0,0,0,1
-3.6958570746626593,1.44965221576829,-2.1365296802745313,0,0,0,1
-2.8897685746626594,1.25011301576829,-0.20592621027453123,0,0,0,1
-0.8658032246626591,0.46104009576829014,-0.09955791027453123,0,0,0,1
-0.8658032246626591,0.46104009576829014,-0.09955791027453123,0,0,0,1
3.6488271253373408,-0.5579574842317099,0.38931081972546877,0,0,0,1
3.6488271253373408,-0.5579574842317099,0.38931081972546877,0,0,0,1
2.161083725337341,-0.012084778231709871,0.09271385972546876,0,0,0,1
-0.4128432146626591,0.15281264576829012,0.050874082725468776,0,0,0,1
-2.2888736746626592,0.20055580576829013,-0.044091733274531225,0,0,0,1
-2.2888736746626592,0.20055580576829013,-0.044091733274531225,0,0,0,1
-0.6072716746626591,0.9735743157682901,-1.1244819802745312,0,0,0,1
-0.6072716746626591,0.9735743157682901,-1.1244819802745312,0,0,0,1
1.841095425337341,0.7137216157682902,-1.2444221802745312,0,0,0,1
1.841095425337341,0.7137216157682902,-1.2444221802745312,0,0,0,1
2.8937640253373407,-0.35755561423170984,-1.0692889802745311,0,0,0,1
-0.4566979246626591,-0.24662828423170988,0.3409933697254688,0,0,0,1
