acc_x,acc_y,acc_z,gyro_x,gyro_y,gyro_z,label
-0.9489712746626591,0.6645466157682901,-0.06638948727453123,0,0,0,1
-0.5826353746626591,0.32023664576829014,-0.12219028027453123,0,0,0,1
-0.5826353746626591,0.32023664576829014,-0.12219028027453123,0,0,0,1
0.5957551253373409,-0.7989272842317099,-0.24123170027453122,0,0,0,1
0.5957551253373409,-0.7989272842317099,-0.24123170027453122,0,0,0,1
0.1743884253373409,-0.1897075242317099,-0.10384098027453123,0,0,0,1
0.1277251453373409,0.49015219576829017,-0.18282744027453124,0,0,0,1
0.3360324053373409,0.6284088657682901,-0.2509481902745312,0,0,0,1
0.1240945053373409,0.37921668576829015,-0.20443426027453124,0,0,0,1
0.1240945053373409,0.37921668576829015,-0.20443426027453124,0,0,0,1
-0.2038740946626591,0.1478281157682901,-0.45565713027453125,0,0,0,1
0.3374648253373409,-0.42288738423170985,-0.7166666102745312,0,0,0,1
0.3374648253373409,-0.42288738423170985,-0.7166666102745312,0,0,0,1
0.5174222253373408,-1.46733298423171,-0.9393308802745312,0,0,0,1
0.5174222253373408,-1.46733298423171,-0.9393308802745312,0,0,0,1
-0.08540008866265911,-1.40376748423171,-0.6951018302745312,0,0,0,1
-0.3233637746626591,-0.0016501958317098712,0.12100880972546876,0,0,0,1
-0.0851931446626591,1.31042171576829,0.7051496197254689,0,0,0,1
-0.09961174466265911,2.03480591576829,0.41129877972546874,0,0,0,1
-0.09961174466265911,2.03480591576829,0.41129877972546874,0,0,0,1
0.3984770953373409,0.6243686857682902,-0.7066134802745312,0,0,0,1
0.1842961453373409,-0.29965988423170986,-0.9959265802745312,0,0,0,1
-0.3145804246626591,-0.6397616842317099,-1.2075363802745311,0,0,0,1
-0.3145804246626591,-0.6397616842317099,-1.2075363802745311,0,0,0,1
0.3460621953373409,0.27367978576829016,-0.36373463027453123,0,0,0,1
0.9260392253373408,0.37603803576829015,-0.4265274402745312,0,0,0,1
0.4400639653373409,-0.3983593442317099,-0.16004452027453123,0,0,0,1
0.4400639653373409,-0.3983593442317099,-0.16004452027453123,0,0,0,1
-1.025438774662659,-0.5943720142317098,0.15316219972546877,0,0,0,1
-1.025438774662659,-0.5943720142317098,0.15316219972546877,0,0,0,1
0.2768159053373409,0.46353687576829017,0.20437098972546877,0,0,0,1
1.571542325337341,0.18118271576829012,-0.8055390402745312,0,0,0,1
1.571542325337341,0.18118271576829012,-0.8055390402745312,0,0,0,1
1.571542325337341,0.18118271576829012,-0.8055390402745312,0,0,0,1
2.554926425337341,-1.70090028423171,-1.326368580274531,0,0,0,1
2.554926425337341,-1.70090028423171,-1.326368580274531,0,0,0,1
-2.8782282746626593,1.97933361576829,0.07898637472546877,0,0,0,1
-1.153280674662659,0.9976587157682901,0.6693687197254689,0,0,0,1
0.7109322753373409,-1.07796688423171,-0.16382698027453124,0,0,0,1
0.7109322753373409,-1.07796688423171,-0.16382698027453124,0,0,0,1
2.6065974253373407,-0.47026870423170986,-0.6014765802745312,0,0,0,1
2.6065974253373407,-0.47026870423170986,-0.6014765802745312,0,0,0,1
-0.5843195746626592,-0.005604189231709871,-0.8821447202745312,0,0,0,1
-2.2667388746626593,-0.41410813423170983,-0.4816607502745312,0,0,0,1
-1.184424874662659,-0.9633322142317099,0.03190079172546878,0,0,0,1
-1.184424874662659,-0.9633322142317099,0.03190079172546878,0,0,0,1
-0.15460251466265912,-0.00889476823170987,0.8037409197254688,0,0,0,1
-0.15460251466265912,-0.00889476823170987,0.8037409197254688,0,0,0,1
-0.08555839466265912,1.69806971576829,0.32732751972546875,0,0,0,1
3.163215225337341,-0.45636205423170983,-0.6237199802745311,0,0,0,1
3.163215225337341,-0.45636205423170983,-0.6237199802745311,0,0,0,1
1.117649525337341,-2.2372576842317096,-0.9366999802745312,0,0,0,1
-2.3591036746626592,-0.6394266842317099,-0.6678811802745311,0,0,0,1
-0.7119927246626591,0.6609217157682902,0.29459721972546876,0,0,0,1
-0.8742403746626591,1.3445686157682901,0.4207071897254688,0,0,0,1
-0.8742403746626591,1.3445686157682901,0.4207071897254688,0,0,0,1
1.903601225337341,-0.6561592842317099,0.46745904972546876,0,0,0,1
1.903601225337341,-0.6561592842317099,0.46745904972546876,0,0,0,1
1.903601225337341,-0.6561592842317099,0.46745904972546876,0,0,0,1
0.14411117533734089,1.01940411576829,-0.9123447302745312,0,0,0,1
0.14411117533734089,1.01940411576829,-0.9123447302745312,0,0,0,1
0.14411117533734089,1.01940411576829,-0.9123447302745312,0,0,0,1
0.14376594533734088,1.0070335157682901,-0.9165830802745312,0,0,0,1
0.14376594533734088,1.0070335157682901,-0.9165830802745312,0,0,0,1
-2.401122074662659,-0.5151889142317099,0.19061193972546878,0,0,0,1
-2.401122074662659,-0.5151889142317099,0.19061193972546878,0,0,0,1
-2.401122074662659,-0.5151889142317099,0.19061193972546878,0,0,0,1
2.5693383253373407,0.28337408576829015,-0.14182437027453124,0,0,0,1
2.417573425337341,0.28730176576829014,-0.4490566602745312,0,0,0,1
0.3318677253373409,-1.20755578423171,-0.25677588027453124,0,0,0,1
-2.081027474662659,-0.05781690423170987,-0.17610541027453122,0,0,0,1
-2.453270874662659,1.75574091576829,-0.2642758502745312,0,0,0,1
0.18680431533734088,1.45946281576829,-0.3686200402745312,0,0,0,1
0.18680431533734088,1.45946281576829,-0.3686200402745312,0,0,0,1
0.18680431533734088,1.45946281576829,-0.3686200402745312,0,0,0,1
0.18680431533734088,1.45946281576829,-0.3686200402745312,0,0,0,1
0.18680431533734088,1.45946281576829,-0.3686200402745312,0,0,0,1
-1.391104174662659,-2.14980128423171,0.004226593725468775,0,0,0,1
0.2545075553373409,1.66641151576829,-0.7978695302745312,0,0,0,1
0.2545075553373409,1.66641151576829,-0.7978695302745312,0,0,0,1
0.4324155053373409,0.1885269357682901,-0.5666729802745312,0,0,0,1
-1.296517874662659,-0.5686195342317099,-1.1664468802745311,0,0,0,1
-0.5416397746626591,-1.35042688423171,-0.7762598102745312,0,0,0,1
-0.5416397746626591,-1.35042688423171,-0.7762598102745312,0,0,0,1
1.275993825337341,-0.5408625442317099,0.14031145972546877,0,0,0,1
-0.24467132466265912,2.0078339157682903,1.6130815197254689,0,0,0,1
-0.24467132466265912,2.0078339157682903,1.6130815197254689,0,0,0,1
-0.24467132466265912,2.0078339157682903,1.6130815197254689,0,0,0,1
-0.24467132466265912,2.0078339157682903,1.6130815197254689,0,0,0,1
-0.24467132466265912,2.0078339157682903,1.6130815197254689,0,0,0,1
0.14538528533734088,-1.29857158423171,-0.18850196027453123,0,0,0,1
-1.096142274662659,-0.8980785442317099,-1.2888281802745312,0,0,0,1
-0.2509465046626591,-0.3717317842317099,-0.6665847802745312,0,0,0,1
0.11675407133734089,-0.3973524842317099,-0.14769998027453124,0,0,0,1
1.458938125337341,-0.2211787842317099,0.13729182972546877,0,0,0,1
1.458938125337341,-0.2211787842317099,0.13729182972546877,0,0,0,1
2.464867125337341,-0.38436911423170983,0.43885954972546876,0,0,0,1
2.464867125337341,-0.38436911423170983,0.43885954972546876,0,0,0,1
0.9673323753373408,-0.07300366423170987,0.04200482172546878,0,0,0,1
-1.290924574662659,0.5359714157682901,0.050354149725468776,0,0,0,1
-1.290924574662659,0.5359714157682901,0.050354149725468776,0,0,0,1
-2.0074247746626592,0.3068093157682901,0.09196626972546877,0,0,0,1
-1.443597274662659,-0.4355308842317099,-0.15423554027453124,0,0,0,1
-0.2927088546626591,-0.7996015342317099,-0.16191149027453122,0,0,0,1
1.461767725337341,-0.27001355423170986,-0.37154618027453123,0,0,0,1
1.332400825337341,1.02758321576829,-0.13441089027453124,0,0,0,1
-0.6794953146626591,0.6400926157682901,-0.07912037027453123,0,0,0,1
-1.701165674662659,-0.023959052231709868,-0.15703246027453122,0,0,0,1
-1.467800574662659,-0.5312301842317099,-0.47064895027453124,0,0,0,1
-0.6690535346626592,-0.2320888842317099,-0.06739721027453123,0,0,0,1
0.1489854053373409,0.13360438576829012,-0.10877725627453123,0,0,0,1
0.1489854053373409,0.13360438576829012,-0.10877725627453123,0,0,0,1
1.325081325337341,-0.16032714423170988,0.048679499725468776,0,0,0,1
2.132353325337341,-0.9867266242317099,-0.41312028027453124,0,0,0,1
1.572266125337341,-1.67198528423171,-0.5488825202745312,0,0,0,1
-0.09177635466265911,-1.07490688423171,-0.3084674502745312,0,0,0,1
-1.198070074662659,0.1724125357682901,0.022005407725468773,0,0,0,1
-0.5311913346626591,1.4070762157682901,0.08451768972546878,0,0,0,1
-0.5311913346626591,1.4070762157682901,0.08451768972546878,0,0,0,1
0.9563040853373409,-0.8337601242317099,-0.6283681802745312,0,0,0,1
0.8500638253373409,-1.18857498423171,-0.7075147802745312,0,0,0,1
0.021500126337340896,1.17989241576829,0.07292076972546876,0,0,0,1
0.021500126337340896,1.17989241576829,0.07292076972546876,0,0,0,1
-0.4203762746626591,0.48001309576829015,-0.07991883027453123,0,0,0,1
-0.4203762746626591,0.48001309576829015,-0.07991883027453123,0,0,0,1
-0.42024277466265914,0.48038865576829015,-0.07642516627453123,0,0,0,1
-0.42024277466265914,0.48038865576829015,-0.07642516627453123,0,0,0,1
0.2581410553373409,-0.5519159242317099,-0.49427942027453126,0,0,0,1
0.2581410553373409,-0.5519159242317099,-0.49427942027453126,0,0,0,1
-0.1727251846626591,-0.1699793642317099,0.19352284972546877,0,0,0,1
-0.5368113346626591,-0.3510940142317099,0.02553298972546877,0,0,0,1
-0.7845749746626591,-0.5684411842317099,-0.10614341627453124,0,0,0,1
0.7881875253373409,-0.4508170342317099,-0.17805421027453122,0,0,0,1
0.5189566753373409,0.38022293576829014,-0.2650053502745312,0,0,0,1
-0.18621109466265912,0.8719160157682901,-0.48023102027453124,0,0,0,1
-0.18621109466265912,0.8719160157682901,-0.48023102027453124,0,0,0,1
-0.18621109466265912,0.8719160157682901,-0.48023102027453124,0,0,0,1
-0.11926697066265911,0.2708828657682901,-0.22087982027453124,0,0,0,1
-0.11926697066265911,0.2708828657682901,-0.22087982027453124,0,0,0,1
-0.0809197246626591,-0.1605486942317099,-0.19474405027453123,0,0,0,1
-0.21236942466265912,0.14047952576829012,-0.3507185002745312,0,0,0,1
0.5780768553373409,0.49808709576829013,-0.41878488027453126,0,0,0,1
-0.4638132746626591,0.03912750276829013,-0.09469962027453123,0,0,0,1
-0.4638132746626591,0.03912750276829013,-0.09469962027453123,0,0,0,1
-1.573792874662659,-0.1837530242317099,-0.11151516627453123,0,0,0,1
-1.573792874662659,-0.1837530242317099,-0.11151516627453123,0,0,0,1
0.2523293653373409,-0.36321528423170985,-0.07066938427453123,0,0,0,1
0.2523293653373409,-0.36321528423170985,-0.07066938427453123,0,0,0,1
0.43584777533734087,-0.1823706142317099,-0.3394062202745312,0,0,0,1
0.9770970253373409,-0.05191848823170987,-0.10785195027453123,0,0,0,1
0.9374003553373409,0.12100267576829013,-0.08578157627453123,0,0,0,1
0.9374003553373409,0.12100267576829013,-0.08578157627453123,0,0,0,1
-1.655209974662659,0.40811337576829015,-0.14915776027453123,0,0,0,1
0.4691949053373409,-0.5091560842317099,-0.12738085027453122,0,0,0,1
0.17859889533734088,0.02979824276829013,-0.4356138402745312,0,0,0,1
0.17859889533734088,0.02979824276829013,-0.4356138402745312,0,0,0,1
0.17859889533734088,0.02979824276829013,-0.4356138402745312,0,0,0,1
0.07331611533734089,-0.10535840423170988,-0.19750473027453122,0,0,0,1
-0.7171807146626591,-0.09004832423170987,0.32556923972546875,0,0,0,1
-0.7171807146626591,-0.09004832423170987,0.32556923972546875,0,0,0,1
-1.259620174662659,0.8033870157682902,0.3806125197254688,0,0,0,1
1.350101025337341,-0.7468396242317099,-1.0188116802745313,0,0,0,1
1.350101025337341,-0.7468396242317099,-1.0188116802745313,0,0,0,1
-0.7695851146626591,-1.04318878423171,-0.9406074802745312,0,0,0,1
-1.349702374662659,0.25882123576829014,0.6193722197254689,0,0,0,1
-1.349702374662659,0.25882123576829014,0.6193722197254689,0,0,0,1
-1.349702374662659,0.25882123576829014,0.6193722197254689,0,0,0,1
-0.5089554746626591,0.9868529157682902,0.7674006197254688,0,0,0,1
0.7162318253373409,0.6857875757682902,0.4608550997254688,0,0,0,1
0.7162318253373409,0.6857875757682902,0.4608550997254688,0,0,0,1
1.710154025337341,0.12755954576829012,-0.10183489427453123,0,0,0,1
1.492007725337341,-0.30281050423170985,-0.2685762102745312,0,0,0,1
-0.2852186946626591,-0.5256439242317098,-0.3819792602745312,0,0,0,1
-1.651526874662659,-0.39015353423170984,-0.4391613002745312,0,0,0,1
-1.651526874662659,-0.39015353423170984,-0.4391613002745312,0,0,0,1
-1.651526874662659,-0.39015353423170984,-0.4391613002745312,0,0,0,1
-0.9508652746626591,-0.16496298423170988,-0.3547242002745312,0,0,0,1
0.7676358253373409,0.10456708576829013,-0.08396840027453123,0,0,0,1
0.4732966553373409,0.24029745576829012,-0.15698278027453122,0,0,0,1
-0.5004753946626591,-0.28832722423170987,0.12371748972546878,0,0,0,1
-0.5004753946626591,-0.28832722423170987,0.12371748972546878,0,0,0,1
-0.2982191746626591,0.8887187157682901,0.07427802572546877,0,0,0,1
2.6847548253373406,0.08481023076829013,-0.6977175802745311,0,0,0,1
2.6847548253373406,0.08481023076829013,-0.6977175802745311,0,0,0,1
2.6847548253373406,0.08481023076829013,-0.6977175802745311,0,0,0,1
2.6847548253373406,0.08481023076829013,-0.6977175802745311,0,0,0,1
2.6847548253373406,0.08481023076829013,-0.6977175802745311,0,0,0,1
-0.8869452346626591,-0.42351223423170986,0.06054409972546878,0,0,0,1
-0.8869452346626591,-0.42351223423170986,0.06054409972546878,0,0,0,1
1.818830025337341,0.39303739576829017,0.33020275972546875,0,0,0,1
1.818830025337341,0.39303739576829017,0.33020275972546875,0,0,0,1
-0.24138592466265912,-0.5958581842317099,-0.31410521027453125,0,0,0,1
-0.24187038466265912,-0.5971122842317098,-0.32456580027453125,0,0,0,1
-0.24187038466265912,-0.5971122842317098,-0.32456580027453125,0,0,0,1
-1.430653074662659,-1.37798388423171,-0.5519600202745312,0,0,0,1
-0.00010536496265910536,1.5145178157682901,-0.045582862274531226,0,0,0,1
-0.00010536496265910536,1.5145178157682901,-0.045582862274531226,0,0,0,1
1.996062725337341,1.31227611576829,0.05137937972546878,0,0,0,1
1.996062725337341,1.31227611576829,0.05137937972546878,0,0,0,1
0.5093493653373409,-0.6449752842317099,-0.6332529802745311,0,0,0,1
0.5093493653373409,-0.6449752842317099,-0.6332529802745311,0,0,0,1
-1.676909874662659,-0.9901979842317099,-0.6612831802745311,0,0,0,1
-1.676909874662659,-0.9901979842317099,-0.6612831802745311,0,0,0,1
-1.857788974662659,-0.5353827342317099,-0.05076816827453122,0,0,0,1
-1.321150274662659,0.03583284076829013,0.24002098972546876,0,0,0,1
-0.7652935746626591,0.6973979657682902,0.5639372797254688,0,0,0,1
-0.7652935746626591,0.6973979657682902,0.5639372797254688,0,0,0,1
0.4241128253373409,0.8170177557682902,0.20077034972546878,0,0,0,1
1.402566425337341,-0.5930679842317098,-0.21929926027453123,0,0,0,1
0.2565999253373409,-0.46182910423170986,-0.7448195802745312,0,0,0,1
0.2565999253373409,-0.46182910423170986,-0.7448195802745312,0,0,0,1
-0.7841419746626591,0.08167927576829014,-0.6138544802745312,0,0,0,1
-1.514495374662659,0.5370808157682901,-0.7315000802745312,0,0,0,1
-1.337149174662659,0.34625751576829017,-0.20080209027453122,0,0,0,1
-0.26258800466265914,-0.1438716442317099,-0.23848674027453123,0,0,0,1
-0.26258800466265914,-0.1438716442317099,-0.23848674027453123,0,0,0,1
0.8298983753373409,-0.30484814423170986,-0.060184240274531224,0,0,0,1
1.086372825337341,-0.01750857823170987,-0.014703156274531226,0,0,0,1
0.6250701253373409,0.15775711576829013,0.5659755197254688,0,0,0,1
-0.051921351662659106,0.6809281157682902,0.4742540997254688,0,0,0,1
-0.051921351662659106,0.6809281157682902,0.4742540997254688,0,0,0,1
-0.4278597746626591,-1.52047278423171,-0.8031488802745311,0,0,0,1
-0.3347792446626591,-1.4899229842317099,-0.5175001302745311,0,0,0,1
