acc_x,acc_y,acc_z,gyro_x,gyro_y,gyro_z,label
1.136412125337341,1.23097321576829,0.9588373597254688,0,0,0,1
-0.12009285466265911,-0.5979236142317098,-0.7676684802745312,0,0,0,1
-1.533462074662659,0.17989061576829013,-0.40871003027453123,0,0,0,1
-1.533462074662659,0.17989061576829013,-0.40871003027453123,0,0,0,1
-0.5167603346626591,-0.026601094231709872,0.03888639672546878,0,0,0,1
-0.5167603346626591,-0.026601094231709872,0.03888639672546878,0,0,0,1
1.548890625337341,-0.7495512142317099,-0.7630308802745311,0,0,0,1
1.548890625337341,-0.7495512142317099,-0.7630308802745311,0,0,0,1
2.232901125337341,0.9689475457682901,0.7948158697254688,0,0,0,1
-0.4686550946626591,1.52825811576829,0.7937625197254689,0,0,0,1
-0.4686550946626591,1.52825811576829,0.7937625197254689,0,0,0,1
-2.116237574662659,0.12807947576829012,-0.005878658674531225,0,0,0,1
-1.470151374662659,-1.45219478423171,-0.41632698027453124,0,0,0,1
-1.470151374662659,-1.45219478423171,-0.41632698027453124,0,0,0,1
-0.1399130646626591,-0.04413471023170987,-0.2542519302745312,0,0,0,1
-0.1399130646626591,-0.04413471023170987,-0.2542519302745312,0,0,0,1
0.8238139253373409,1.3593942157682901,-0.06483874027453122,0,0,0,1
2.313868025337341,1.26488221576829,-0.06364748027453122,0,0,0,1
2.3446221253373407,-0.28777102423170986,-0.30525604027453124,0,0,0,1
2.3446221253373407,-0.28777102423170986,-0.30525604027453124,0,0,0,1
0.4447684453373409,-1.09866748423171,-0.3421728302745312,0,0,0,1
-1.587679374662659,-0.7824162842317098,-0.3423610602745312,0,0,0,1
-1.538089274662659,-0.7827038842317099,-0.5956682802745312,0,0,0,1
-1.538089274662659,-0.7827038842317099,-0.5956682802745312,0,0,0,1
0.06209804533734089,-0.7999013842317099,-0.05355987027453122,0,0,0,1
0.024926678337340896,2.0481875157682903,0.22371455972546878,0,0,0,1
0.024926678337340896,2.0481875157682903,0.22371455972546878,0,0,0,1
0.3415341553373409,0.9811669757682902,-0.5081553202745311,0,0,0,1
0.3415341553373409,0.9811669757682902,-0.5081553202745311,0,0,0,1
1.609120825337341,-1.8092523842317099,-0.4912562802745312,0,0,0,1
1.150706725337341,-2.4952706842317096,-0.7689888802745312,0,0,0,1
-1.506123974662659,0.7993625557682902,-0.14732936027453122,0,0,0,1
-0.2396216246626591,0.9267316157682901,0.5457452197254689,0,0,0,1
-0.4513077546626591,0.47396181576829016,0.028500584725468774,0,0,0,1
-0.4513077546626591,0.47396181576829016,0.028500584725468774,0,0,0,1
-0.4513077546626591,0.47396181576829016,0.028500584725468774,0,0,0,1
2.3197913253373406,-0.9468521842317098,-0.4313556302745312,0,0,0,1
2.3197913253373406,-0.9468521842317098,-0.4313556302745312,0,0,0,1
1.348225125337341,-0.8888942842317099,-0.6834254802745312,0,0,0,1
-1.596781274662659,0.26902379576829016,-0.08782569027453123,0,0,0,1
-1.596781274662659,0.26902379576829016,-0.08782569027453123,0,0,0,1
-1.670003374662659,0.16421549576829012,-0.15228263027453123,0,0,0,1
-1.670003374662659,0.16421549576829012,-0.15228263027453123,0,0,0,1
-0.3672194346626591,0.11114646076829013,0.19597902972546877,0,0,0,1
0.0524439973373409,-0.1630542442317099,0.06772556972546877,0,0,0,1
1.925643425337341,-1.0823411842317099,-0.11184016027453123,0,0,0,1
2.1004720253373406,0.10828288976829013,-0.06666073327453123,0,0,0,1
-0.26143024466265913,1.48918321576829,0.011264233725468774,0,0,0,1
-0.26143024466265913,1.48918321576829,0.011264233725468774,0,0,0,1
-2.175674374662659,1.20349101576829,-0.5489573802745312,0,0,0,1
-2.175674374662659,1.20349101576829,-0.5489573802745312,0,0,0,1
-2.175674374662659,1.20349101576829,-0.5489573802745312,0,0,0,1
-1.865223374662659,-0.6269123842317098,-0.19520995027453122,0,0,0,1
-0.6625408746626591,-1.2347322842317099,-0.8402286502745312,0,0,0,1
2.3521562253373407,0.5142724657682901,-0.43169288027453123,0,0,0,1
2.3521562253373407,0.5142724657682901,-0.43169288027453123,0,0,0,1
2.3521562253373407,0.5142724657682901,-0.43169288027453123,0,0,0,1
2.198000425337341,1.22966651576829,-0.25804135027453123,0,0,0,1
2.198000425337341,1.22966651576829,-0.25804135027453123,0,0,0,1
-1.716474074662659,-0.4953911442317099,-0.12614170027453123,0,0,0,1
-1.716474074662659,-0.4953911442317099,-0.12614170027453123,0,0,0,1
-2.083333474662659,-0.9366466842317098,0.7759761497254688,0,0,0,1
-2.083333474662659,-0.9366466842317098,0.7759761497254688,0,0,0,1
-2.083333474662659,-0.9366466842317098,0.7759761497254688,0,0,0,1
-0.4215321346626591,0.26279801576829015,1.284083419725469,0,0,0,1
1.313277725337341,1.42498241576829,1.291645319725469,0,0,0,1
2.225044725337341,-0.2265192842317099,-0.9609523802745312,0,0,0,1
0.3878951253373409,-1.27490338423171,-1.4274966802745312,0,0,0,1
-2.121242474662659,-0.9854815442317099,-1.2599779802745312,0,0,0,1
-2.121242474662659,-0.9854815442317099,-1.2599779802745312,0,0,0,1
-2.402997974662659,-0.1390663342317099,-0.45580498027453126,0,0,0,1
-0.3305907046626591,0.7778933157682901,0.2609889197254688,0,0,0,1
-0.3305907046626591,0.7778933157682901,0.2609889197254688,0,0,0,1
-0.6189789746626592,-1.6838762842317099,-0.4525685002745312,0,0,0,1
-0.6189789746626592,-1.6838762842317099,-0.4525685002745312,0,0,0,1
-2.0293225746626593,-0.45456753423170987,-0.10379890027453123,0,0,0,1
-1.710702374662659,1.2927151157682901,0.32573701972546876,0,0,0,1
0.10811664533734089,1.86469461576829,-0.07381353027453123,0,0,0,1
0.10811664533734089,1.86469461576829,-0.07381353027453123,0,0,0,1
1.287488525337341,0.8313490157682901,-0.6735721802745311,0,0,0,1
1.287488525337341,0.8313490157682901,-0.6735721802745311,0,0,0,1
-0.9700522246626591,0.13767878576829012,-0.13497499027453122,0,0,0,1
-0.9700522246626591,0.13767878576829012,-0.13497499027453122,0,0,0,1
1.249312925337341,-0.2320199142317099,0.19506593972546876,0,0,0,1
1.249312925337341,-0.2320199142317099,0.19506593972546876,0,0,0,1
1.687792325337341,-0.2159707042317099,0.29253616972546875,0,0,0,1
0.0344720053373409,0.25376101576829013,-0.3703433002745312,0,0,0,1
-0.43104694466265914,-0.04813985223170987,-0.5467413802745311,0,0,0,1
0.015029446337340897,0.35500111576829013,-0.4583524202745312,0,0,0,1
1.802786325337341,-0.4000126842317099,-0.5875480802745312,0,0,0,1
1.568189125337341,-0.9175463842317099,-0.0027286127745312257,0,0,0,1
1.568189125337341,-0.9175463842317099,-0.0027286127745312257,0,0,0,1
-1.976978774662659,-0.18847040423170988,0.3483761197254688,0,0,0,1
-1.976978774662659,-0.18847040423170988,0.3483761197254688,0,0,0,1
-0.05544136466265911,-0.25858966423170987,0.36811717972546876,0,0,0,1
-0.05544136466265911,-0.25858966423170987,0.36811717972546876,0,0,0,1
0.8563742753373409,-0.5136381842317098,-0.9495103802745312,0,0,0,1
1.721392125337341,-0.45526633423170987,-0.5525913802745311,0,0,0,1
1.721392125337341,-0.45526633423170987,-0.5525913802745311,0,0,0,1
-1.990457474662659,0.9737619157682902,-0.43376270027453123,0,0,0,1
-1.990457474662659,0.9737619157682902,-0.43376270027453123,0,0,0,1
-1.213850474662659,-0.8885973542317098,-0.034877272274531225,0,0,0,1
-0.042474254662659104,-1.51990558423171,0.14793475972546877,0,0,0,1
-0.042474254662659104,-1.51990558423171,0.14793475972546877,0,0,0,1
-0.042474254662659104,-1.51990558423171,0.14793475972546877,0,0,0,1
1.029601625337341,-0.8886639842317099,0.15170904972546878,0,0,0,1
2.0557094253373407,0.1843949457682901,1.025757519725469,0,0,0,1
-1.319862874662659,0.34012879576829014,-0.13057348027453122,0,0,0,1
-0.9934315746626591,0.03622885576829013,-0.34975580027453124,0,0,0,1
-0.9934315746626591,0.03622885576829013,-0.34975580027453124,0,0,0,1
-0.9934315746626591,0.03622885576829013,-0.34975580027453124,0,0,0,1
-0.9934315746626591,0.03622885576829013,-0.34975580027453124,0,0,0,1
-0.11370800466265911,0.014662373768290129,-0.5578730802745312,0,0,0,1
1.784998425337341,0.04747538576829013,-0.7417839802745312,0,0,0,1
1.323664225337341,0.5024026157682902,-0.30060223027453126,0,0,0,1
-1.329469174662659,-1.00941248423171,0.6278570597254688,0,0,0,1
0.0570559653373409,-0.25533531423170985,0.6814361497254688,0,0,0,1
2.5848087253373406,0.5191471757682902,-0.26139298027453123,0,0,0,1
2.5848087253373406,0.5191471757682902,-0.26139298027453123,0,0,0,1
1.528061425337341,-0.057002377231709866,-0.7806910802745312,0,0,0,1
1.528061425337341,-0.057002377231709866,-0.7806910802745312,0,0,0,1
1.528061425337341,-0.057002377231709866,-0.7806910802745312,0,0,0,1
1.528061425337341,-0.057002377231709866,-0.7806910802745312,0,0,0,1
-1.452986274662659,0.22307331576829012,-0.9232349802745312,0,0,0,1
-1.749595174662659,0.9214320157682901,-0.28299400027453125,0,0,0,1
-1.646905374662659,1.41232201576829,-0.24673846027453122,0,0,0,1
-0.04190395666265911,0.05313091276829013,-0.48184481027453124,0,0,0,1
-0.04190395666265911,0.05313091276829013,-0.48184481027453124,0,0,0,1
2.554079525337341,-1.19062938423171,-0.19101658027453122,0,0,0,1
2.554079525337341,-1.19062938423171,-0.19101658027453122,0,0,0,1
2.696628125337341,-0.7953958342317099,0.12033953972546876,0,0,0,1
0.4560904653373409,0.5923532157682901,-0.07577696627453123,0,0,0,1
-0.3524164946626591,0.05443702976829013,0.2761976397254688,0,0,0,1
-1.838313074662659,0.20721118576829012,-0.8802864802745312,0,0,0,1
0.4412303253373409,-0.7961179842317099,-0.6119710802745312,0,0,0,1
0.4412303253373409,-0.7961179842317099,-0.6119710802745312,0,0,0,1
1.865159525337341,-1.4849668842317099,-0.39506738027453125,0,0,0,1
0.4218611853373409,-0.30329100423170985,-0.5840654802745312,0,0,0,1
0.4218611853373409,-0.30329100423170985,-0.5840654802745312,0,0,0,1
0.0609507753373409,1.25048921576829,-0.25003627027453124,0,0,0,1
0.7632355853373409,0.8770662757682901,0.6641390197254688,0,0,0,1
0.7632355853373409,0.8770662757682901,0.6641390197254688,0,0,0,1
-1.481948374662659,0.08980292576829013,-0.2555798602745312,0,0,0,1
-0.9156565746626592,-0.9733261242317098,-0.5711697802745311,0,0,0,1
-0.9156565746626592,-0.9733261242317098,-0.5711697802745311,0,0,0,1
0.4681086653373409,-1.1871517842317099,-0.048790724274531225,0,0,0,1
-0.4544682346626591,0.39653723576829014,-0.09863165027453123,0,0,0,1
-0.7959561146626591,1.00599241576829,-0.36821142027453124,0,0,0,1
1.673781925337341,0.03436892076829013,-0.3538105802745312,0,0,0,1
0.2120442553373409,-0.6587459842317098,-0.5568238802745312,0,0,0,1
-1.028706974662659,-0.46214766423170983,-0.3334516602745312,0,0,0,1
-1.028706974662659,-0.46214766423170983,-0.3334516602745312,0,0,0,1
-0.49144981466265913,-0.5653674842317099,0.28574224972546874,0,0,0,1
-0.49144981466265913,-0.5653674842317099,0.28574224972546874,0,0,0,1
-0.4431099746626591,0.30120377576829016,0.3431406197254688,0,0,0,1
-0.5468067746626591,1.24137831576829,0.39703294972546876,0,0,0,1
-0.5468067746626591,1.24137831576829,0.39703294972546876,0,0,0,1
1.557568125337341,0.3381665857682901,-0.2994962002745312,0,0,0,1
0.7280020853373409,-0.5767460842317098,-0.9799100502745312,0,0,0,1
0.10873367033734088,-1.01881788423171,-0.5302672802745312,0,0,0,1
0.10873367033734088,-1.01881788423171,-0.5302672802745312,0,0,0,1
0.20078803533734088,-0.7654826442317099,0.17106839972546878,0,0,0,1
0.20078803533734088,-0.7654826442317099,0.17106839972546878,0,0,0,1
0.2458930153373409,0.45380164576829013,-0.20790688027453122,0,0,0,1
0.17911292533734088,1.53351331576829,0.04695924972546878,0,0,0,1
0.3897071053373409,1.04485541576829,-0.16780808027453123,0,0,0,1
-0.11054657466265912,-0.7333535842317098,0.26554467972546875,0,0,0,1
-0.7715077246626592,-1.48209888423171,0.0048731252254687754,0,0,0,1
1.739861025337341,-0.10067082423170987,-0.13700381027453123,0,0,0,1
2.137590925337341,1.29855301576829,-0.34912458027453125,0,0,0,1
0.052701489337340895,1.39312021576829,-0.3751509502745312,0,0,0,1
0.052701489337340895,1.39312021576829,-0.3751509502745312,0,0,0,1
0.052701489337340895,1.39312021576829,-0.3751509502745312,0,0,0,1
-1.443610674662659,-0.8007950842317099,-0.12930861027453122,0,0,0,1
-0.6542849346626591,-0.5996838842317098,-0.12506488027453122,0,0,0,1
0.5977292253373409,0.22070983576829012,-0.14954069027453123,0,0,0,1
1.955679425337341,-0.14953542423170987,-0.08570674027453123,0,0,0,1
0.9607167253373409,-0.26504278423170985,-1.1144728802745312,0,0,0,1
0.9607167253373409,-0.26504278423170985,-1.1144728802745312,0,0,0,1
-1.631493074662659,-0.25855518423170987,-0.49595705027453124,0,0,0,1
-1.631493074662659,-0.25855518423170987,-0.49595705027453124,0,0,0,1
-3.2872514746626593,0.9142757857682902,0.4746713897254688,0,0,0,1
-0.6444811746626591,0.7322185157682901,0.7974134197254689,0,0,0,1
2.256982325337341,0.39861781576829014,-0.23196057027453124,0,0,0,1
2.256982325337341,0.39861781576829014,-0.23196057027453124,0,0,0,1
3.361736725337341,0.07854385976829013,-0.5548312802745312,0,0,0,1
3.361736725337341,0.07854385976829013,-0.5548312802745312,0,0,0,1
3.361736725337341,0.07854385976829013,-0.5548312802745312,0,0,0,1
1.079322325337341,-0.6910680342317098,-1.530574780274531,0,0,0,1
-4.258644574662659,-0.30648420423170986,-0.20897022027453124,0,0,0,1
-3.8579362746626593,0.7221579757682901,0.5523561197254688,0,0,0,1
-1.405333974662659,0.6887710157682901,1.2419266197254688,0,0,0,1
0.5776229253373409,-0.06345636823170987,0.3867166197254688,0,0,0,1
4.376066725337341,-0.5194530342317099,0.11933299972546876,0,0,0,1
3.121193425337341,-0.16355894423170989,-0.30395438027453126,0,0,0,1
-0.3685793746626591,0.5170626857682902,-0.6028859802745312,0,0,0,1
-2.6459459746626592,0.7708860857682901,-0.4089894602745312,0,0,0,1
-2.7977180746626593,0.6562482157682902,0.11877592972546877,0,0,0,1
3.232050425337341,-0.4681486342317099,-0.43116322027453124,0,0,0,1
3.232050425337341,-0.4681486342317099,-0.43116322027453124,0,0,0,1
0.8017850253373409,0.0025589351482901285,-0.42860595027453124,0,0,0,1
-0.7998013346626591,-0.4807597242317099,0.06480416472546877,0,0,0,1
-1.934530674662659,-0.31423030423170983,0.08858015972546877,0,0,0,1
-1.683245174662659,0.6745601157682901,-0.047688277274531225,0,0,0,1
-1.683245174662659,0.6745601157682901,-0.047688277274531225,0,0,0,1
1.024758825337341,-0.05573425823170987,0.07203813972546877,0,0,0,1
1.024758825337341,-0.05573425823170987,0.07203813972546877,0,0,0,1
2.4200311253373408,-0.27126206423170984,-0.13591781027453123,0,0,0,1
1.838411825337341,0.03377445376829013,-0.19694129027453122,0,0,0,1
1.247573425337341,0.11551983976829013,-0.3419337602745312,0,0,0,1
1.247573425337341,0.11551983976829013,-0.3419337602745312,0,0,0,1
-0.6571078146626591,-0.11965085423170987,-0.5200264802745311,0,0,0,1
-0.9962458746626591,0.6664145157682901,-0.5882038202745312,0,0,0,1
