acc_x,acc_y,acc_z,gyro_x,gyro_y,gyro_z,label
-0.16207741466265912,-0.8488328842317099,-0.6575716802745312,0,0,0,1
-1.326866574662659,0.8045174657682902,-0.25134012027453123,0,0,0,1
-1.326866574662659,0.8045174657682902,-0.25134012027453123,0,0,0,1
-0.8523916746626591,2.41351011576829,0.3825043197254688,0,0,0,1
0.6961693953373409,0.4118268957682901,-0.24360952027453123,0,0,0,1
0.6961693953373409,0.4118268957682901,-0.24360952027453123,0,0,0,1
1.378409925337341,-1.59612418423171,-0.7191934802745312,0,0,0,1
0.23379279533734088,-1.54037068423171,-1.111395380274531,0,0,0,1
-0.6701302346626591,0.25643845576829016,-0.4477856502745312,0,0,0,1
-0.8179096746626591,1.4456097157682901,0.022844521725468775,0,0,0,1
0.20623732533734088,0.45880253576829017,-0.20555684027453122,0,0,0,1
0.20623732533734088,0.45880253576829017,-0.20555684027453122,0,0,0,1
1.023573425337341,-0.6842110842317098,-0.5781190802745312,0,0,0,1
0.5391974653373409,-0.5906880842317098,-0.7771707502745312,0,0,0,1
-0.7247261746626591,0.27773171576829014,-0.47071328027453124,0,0,0,1
-1.604162674662659,0.5903822157682902,-0.041340382274531226,0,0,0,1
-0.8555092746626591,0.5889519157682901,0.03918447972546878,0,0,0,1
-0.8555092746626591,0.5889519157682901,0.03918447972546878,0,0,0,1
2.2806783253373406,0.7439773157682902,0.22158780972546877,0,0,0,1
0.3555636553373409,0.4664425757682901,0.2971907197254688,0,0,0,1
0.3555636553373409,0.4664425757682901,0.2971907197254688,0,0,0,1
-0.7414622146626592,0.32960419576829014,0.024131922725468772,0,0,0,1
-1.660795674662659,-0.27763948423170987,-0.25384709027453123,0,0,0,1
-0.3200945746626591,-0.8865257342317099,-0.08045164027453124,0,0,0,1
2.222422125337341,-0.20086227423170988,0.4634983197254688,0,0,0,1
1.546936525337341,1.54091981576829,0.12636765972546876,0,0,0,1
1.546936525337341,1.54091981576829,0.12636765972546876,0,0,0,1
1.546936525337341,1.54091981576829,0.12636765972546876,0,0,0,1
-2.547515274662659,-1.35274738423171,-1.1426231802745312,0,0,0,1
-2.547515274662659,-1.35274738423171,-1.1426231802745312,0,0,0,1
-3.114238274662659,-1.1894130842317099,-0.6664339802745312,0,0,0,1
-0.4488196246626591,0.37543539576829016,1.0122445197254688,0,0,0,1
-0.4488196246626591,0.37543539576829016,1.0122445197254688,0,0,0,1
1.012889425337341,1.06914161576829,0.8377527897254688,0,0,0,1
1.012889425337341,1.06914161576829,0.8377527897254688,0,0,0,1
1.617064025337341,0.42605297576829015,-1.4919641802745311,0,0,0,1
-1.762658574662659,-0.22277484423170987,-1.6857597802745312,0,0,0,1
-1.762658574662659,-0.22277484423170987,-1.6857597802745312,0,0,0,1
-3.731462974662659,1.04907081576829,-0.8414281802745311,0,0,0,1
-2.106356574662659,0.8167658157682901,-0.5563447802745312,0,0,0,1
2.148211025337341,-0.5059235842317099,-0.28614028027453126,0,0,0,1
3.366139925337341,-0.5556831842317098,0.4234506797254688,0,0,0,1
3.366139925337341,-0.5556831842317098,0.4234506797254688,0,0,0,1
-0.24962566466265912,0.5783390157682902,0.15028311972546876,0,0,0,1
-1.249155474662659,0.13246573576829013,0.46968167972546876,0,0,0,1
-2.038444974662659,-0.43819163423170987,-0.5049054302745312,0,0,0,1
-2.815917474662659,-0.6406261142317099,-0.7469266802745311,0,0,0,1
-2.203441174662659,-0.9235125842317099,-0.7144991802745312,0,0,0,1
-0.3477835446626591,-1.14344568423171,-0.03978178027453122,0,0,0,1
0.5868220253373408,-0.5145555842317099,0.38664534972546877,0,0,0,1
0.7320380253373409,-0.5186836842317099,0.39482488972546875,0,0,0,1
1.626292725337341,-0.14586345423170988,0.7144548597254688,0,0,0,1
-1.389438174662659,0.43128796576829015,0.25746921972546877,0,0,0,1
-1.390964974662659,0.42481203576829013,-0.13554344027453122,0,0,0,1
-1.318549574662659,-0.8278026442317099,-0.6098367802745311,0,0,0,1
0.8806023753373409,0.8204295857682902,-0.3328263502745312,0,0,0,1
0.8806023753373409,0.8204295857682902,-0.3328263502745312,0,0,0,1
1.968293725337341,0.8694712657682901,0.34746166972546877,0,0,0,1
0.6883397253373409,-0.13246498423170988,0.4327869197254688,0,0,0,1
0.9054217253373409,-0.7137813842317099,0.3576162697254688,0,0,0,1
0.9054217253373409,-0.7137813842317099,0.3576162697254688,0,0,0,1
-0.4784397946626591,0.7123924157682902,-0.056972237274531226,0,0,0,1
-0.9582829346626591,0.00969215076829013,0.10982366972546877,0,0,0,1
-0.9582829346626591,0.00969215076829013,0.10982366972546877,0,0,0,1
0.9766135253373409,-1.52187678423171,-0.04829678027453122,0,0,0,1
0.9766135253373409,-1.52187678423171,-0.04829678027453122,0,0,0,1
1.566664225337341,0.23124291576829012,0.4574747997254688,0,0,0,1
1.137351525337341,2.4230711157682903,0.4945422697254687,0,0,0,1
1.137351525337341,2.4230711157682903,0.4945422697254687,0,0,0,1
1.137351525337341,2.4230711157682903,0.4945422697254687,0,0,0,1
-0.008663638262659106,-1.22181868423171,-1.6051049802745312,0,0,0,1
0.2637620253373409,-1.4278606842317099,-1.0129461802745312,0,0,0,1
0.2637620253373409,-1.4278606842317099,-1.0129461802745312,0,0,0,1
2.226624025337341,1.57027701576829,0.6624169597254689,0,0,0,1
0.07553912533734089,-1.79115328423171,-0.7350563102745312,0,0,0,1
0.07553912533734089,-1.79115328423171,-0.7350563102745312,0,0,0,1
0.04477264133734089,-2.69420148423171,-0.5726818802745312,0,0,0,1
0.04477264133734089,-2.69420148423171,-0.5726818802745312,0,0,0,1
0.016678349337340897,1.64427541576829,-0.45018158027453126,0,0,0,1
0.5986972253373409,0.5483261557682901,-0.5712089802745312,0,0,0,1
0.5986972253373409,0.5483261557682901,-0.5712089802745312,0,0,0,1
0.5986972253373409,0.5483261557682901,-0.5712089802745312,0,0,0,1
1.190443525337341,0.5636242857682902,-0.31584361027453123,0,0,0,1
1.008716125337341,0.40809704576829015,-0.10132667527453124,0,0,0,1
1.008716125337341,0.40809704576829015,-0.10132667527453124,0,0,0,1
-0.7133087746626591,-0.5513780842317099,-0.39810918027453124,0,0,0,1
-0.0341152986626591,0.1570644257682901,-0.18328074027453123,0,0,0,1
0.6880536253373409,1.06015941576829,0.2733524697254688,0,0,0,1
0.6880536253373409,1.06015941576829,0.2733524697254688,0,0,0,1
-0.7429537746626591,-0.5958149242317099,-0.5182672502745311,0,0,0,1
-0.7429537746626591,-0.5958149242317099,-0.5182672502745311,0,0,0,1
-0.4748835446626591,-1.03349828423171,-0.5623186802745311,0,0,0,1
-0.4748835446626591,-1.03349828423171,-0.5623186802745311,0,0,0,1
1.528111025337341,1.53978191576829,-0.049840780274531225,0,0,0,1
1.249260425337341,1.96058921576829,0.06637265972546877,0,0,0,1
0.3071122253373409,1.03787881576829,0.30604239972546876,0,0,0,1
-0.8745245746626591,-0.5223583842317099,-0.13085231027453123,0,0,0,1
-1.552361974662659,-1.5942437842317099,-0.4677868202745312,0,0,0,1
-0.5824808746626591,-0.34333191423170983,-0.04561153027453122,0,0,0,1
-0.5824808746626591,-0.34333191423170983,-0.04561153027453122,0,0,0,1
0.3659901753373409,1.56865001576829,0.3028530197254688,0,0,0,1
0.6654877853373409,0.6994747657682902,-0.05449858427453122,0,0,0,1
0.20918037533734088,-0.43038736423170987,-0.3297320802745312,0,0,0,1
-0.5067038346626591,-0.7310276842317098,-0.5882582402745312,0,0,0,1
-0.9807724746626592,0.07727165576829013,-0.42970898027453125,0,0,0,1
-0.8753742746626592,0.8294177857682902,0.22821511972546876,0,0,0,1
-0.8824276746626591,0.5753471157682901,-0.09225169027453123,0,0,0,1
-0.7961096746626591,-0.1256336942317099,0.21496715972546876,0,0,0,1
-0.007437213062659105,-0.37309895423170986,0.6432606897254688,0,0,0,1
0.8199048253373409,-0.2054300142317099,0.2688846197254688,0,0,0,1
1.579332825337341,0.6586979157682902,-0.11192462027453123,0,0,0,1
1.495913025337341,0.9186266857682901,-0.5338082802745312,0,0,0,1
-1.632383774662659,-1.37262108423171,-0.9231612402745312,0,0,0,1
-1.632383774662659,-1.37262108423171,-0.9231612402745312,0,0,0,1
-2.435118674662659,-1.93599648423171,-0.46919546027453124,0,0,0,1
-1.658806274662659,-0.9481377842317098,0.7445460797254688,0,0,0,1
0.7763056953373408,1.46717001576829,1.1214911197254689,0,0,0,1
0.7763056953373408,1.46717001576829,1.1214911197254689,0,0,0,1
0.3677144253373409,-1.76240558423171,-0.12884656027453123,0,0,0,1
0.3677144253373409,-1.76240558423171,-0.12884656027453123,0,0,0,1
-2.1607742746626593,-1.28746098423171,-0.4462495802745312,0,0,0,1
-1.308722974662659,1.32570431576829,0.31865527972546875,0,0,0,1
0.1353717053373409,1.71443681576829,0.16651585972546876,0,0,0,1
1.424809925337341,1.68779351576829,-0.39325354027453124,0,0,0,1
1.424809925337341,1.68779351576829,-0.39325354027453124,0,0,0,1
1.541781925337341,-0.46428821423170985,-0.42240158027453123,0,0,0,1
-1.005007274662659,-1.0193893842317099,-0.26533505027453125,0,0,0,1
-1.005007274662659,-1.0193893842317099,-0.26533505027453125,0,0,0,1
-1.795675774662659,0.24326448576829013,-0.18511412027453122,0,0,0,1
0.7274756553373409,0.10136796576829013,-0.40313694027453123,0,0,0,1
0.7274756553373409,0.10136796576829013,-0.40313694027453123,0,0,0,1
0.5695071253373409,-0.18428377423170988,0.22625341972546878,0,0,0,1
-1.864470474662659,0.9221743557682901,-0.4499337402745312,0,0,0,1
-1.864470474662659,0.9221743557682901,-0.4499337402745312,0,0,0,1
0.35895110533734087,-0.9820237842317099,-0.29706523027453124,0,0,0,1
0.3218245653373409,-0.8228362842317098,-0.5712933302745312,0,0,0,1
0.3218245653373409,-0.8228362842317098,-0.5712933302745312,0,0,0,1
1.367901325337341,-0.43262581423170987,-0.019758375274531226,0,0,0,1
2.4953132253373407,-0.22223792423170988,0.4932814497254688,0,0,0,1
-0.30698345466265914,0.09106608076829013,-0.11218914527453124,0,0,0,1
-0.30698345466265914,0.09106608076829013,-0.11218914527453124,0,0,0,1
-1.410091874662659,-1.17112058423171,-0.13896427027453123,0,0,0,1
-2.1715992746626593,-0.8419646842317099,0.19237860972546877,0,0,0,1
-0.6618017746626591,-0.28451494423170987,0.26718925972546875,0,0,0,1
2.532349125337341,-0.12521634423170988,0.8103837197254689,0,0,0,1
3.733888125337341,0.3324783157682901,0.39714338972546875,0,0,0,1
2.1725135253373407,-0.012526970231709872,-0.6127166802745312,0,0,0,1
1.904017025337341,-0.9373504842317099,-0.7349726802745312,0,0,0,1
-3.776938374662659,-0.003141563631709871,-0.12185273027453122,0,0,0,1
-0.9171690746626591,-0.7668057542317098,-0.29629716027453123,0,0,0,1
-2.316306074662659,0.2429476557682901,0.27126601972546877,0,0,0,1
1.164826925337341,0.40184645576829015,1.179874819725469,0,0,0,1
1.668457525337341,0.8627648157682901,0.8450362197254688,0,0,0,1
1.756352925337341,0.35293893576829016,0.13494118972546876,0,0,0,1
1.756352925337341,0.35293893576829016,0.13494118972546876,0,0,0,1
1.756352925337341,0.35293893576829016,0.13494118972546876,0,0,0,1
-1.043005474662659,-2.09137808423171,-1.4270247802745313,0,0,0,1
-2.2441696746626594,-1.37168878423171,-1.5597400802745311,0,0,0,1
-0.37912891466265913,-0.08139829023170987,-0.7182307802745311,0,0,0,1
1.490005025337341,1.51552391576829,-0.006433279874531225,0,0,0,1
1.490005025337341,1.51552391576829,-0.006433279874531225,0,0,0,1
-1.682949574662659,-0.7994571142317098,-0.6417189802745312,0,0,0,1
-1.682949574662659,-0.7994571142317098,-0.6417189802745312,0,0,0,1
-2.039564074662659,-0.8285761842317099,-0.7140575402745312,0,0,0,1
1.680302125337341,-0.25515971423170986,-0.30024704027453125,0,0,0,1
1.680302125337341,-0.25515971423170986,-0.30024704027453125,0,0,0,1
1.497649725337341,0.5094365157682902,0.16664799972546876,0,0,0,1
-1.683495974662659,-0.1586136042317099,0.25136419972546875,0,0,0,1
-1.683495974662659,-0.1586136042317099,0.25136419972546875,0,0,0,1
0.10713340533734089,-0.06263713423170987,0.6551273797254689,0,0,0,1
0.8929171753373409,1.24007071576829,0.46607431972546876,0,0,0,1
0.8929171753373409,1.24007071576829,0.46607431972546876,0,0,0,1
1.622941525337341,0.05074198876829013,-0.5178742802745312,0,0,0,1
0.07112647533734089,0.35277811576829016,-0.8695873802745312,0,0,0,1
