acc_x,acc_y,acc_z,gyro_x,gyro_y,gyro_z,label
-1.725089574662659,-0.6258775442317098,-0.3712071502745312,0,0,0,1
2.5876460253373406,0.47388233576829014,0.08560725972546877,0,0,0,1
2.068441925337341,0.5813668557682902,-0.10619083027453123,0,0,0,1
2.068441925337341,0.5813668557682902,-0.10619083027453123,0,0,0,1
1.907331925337341,0.1383240957682901,-0.25143102027453124,0,0,0,1
1.259769925337341,-0.38671950423170987,-0.3013105802745312,0,0,0,1
1.259769925337341,-0.38671950423170987,-0.3013105802745312,0,0,0,1
-0.29738472466265914,0.09573348976829013,-0.38502005027453123,0,0,0,1
-0.29738472466265914,0.09573348976829013,-0.38502005027453123,0,0,0,1
-1.943711774662659,0.007727582768290129,-0.7062071802745312,0,0,0,1
-1.693792774662659,-0.11571409923170987,-0.6437305802745312,0,0,0,1
-0.6139445146626591,0.06269251576829013,-0.19041446027453124,0,0,0,1
-0.4259047346626591,0.5336289557682902,-0.08640817027453122,0,0,0,1
-0.4259047346626591,0.5336289557682902,-0.08640817027453122,0,0,0,1
-0.3644709446626591,0.7271162157682901,-0.12007788027453123,0,0,0,1
0.9259400253373409,0.2604997157682901,-0.6561182802745312,0,0,0,1
2.605721925337341,-0.44940916423170985,-1.2197407802745313,0,0,0,1
2.605721925337341,-0.44940916423170985,-1.2197407802745313,0,0,0,1
2.605721925337341,-0.44940916423170985,-1.2197407802745313,0,0,0,1
2.4510703253373407,-1.09873148423171,-1.7232326802745312,0,0,0,1
-1.023870974662659,-0.7885598342317098,-1.5296306802745312,0,0,0,1
-1.023870974662659,-0.7885598342317098,-1.5296306802745312,0,0,0,1
-1.023870974662659,-0.7885598342317098,-1.5296306802745312,0,0,0,1
-2.490014574662659,-0.14408123423170988,-0.30146423027453123,0,0,0,1
-2.955587874662659,0.6300672157682902,0.6412484197254689,0,0,0,1
-1.538148374662659,0.9005278157682901,1.3595681197254688,0,0,0,1
0.7506480253373409,0.44670091576829013,0.9650543197254688,0,0,0,1
0.7506480253373409,0.44670091576829013,0.9650543197254688,0,0,0,1
-1.331079974662659,-0.8803599342317099,-1.8078666802745311,0,0,0,1
-3.2815365746626592,-0.6416496442317099,-1.8006588802745311,0,0,0,1
-3.2815365746626592,-0.6416496442317099,-1.8006588802745311,0,0,0,1
-3.2815365746626592,-0.6416496442317099,-1.8006588802745311,0,0,0,1
-3.2815365746626592,-0.6416496442317099,-1.8006588802745311,0,0,0,1
-3.7971362746626593,-0.002757571931709871,-0.7099282802745311,0,0,0,1
-2.930341274662659,0.9430517757682901,1.507922619725469,0,0,0,1
-0.8569073746626591,1.6818459157682901,2.8241240197254687,0,0,0,1
4.170981725337341,0.4283857857682901,0.3822889597254688,0,0,0,1
4.170981725337341,0.4283857857682901,0.3822889597254688,0,0,0,1
4.170981725337341,0.4283857857682901,0.3822889597254688,0,0,0,1
4.170981725337341,0.4283857857682901,0.3822889597254688,0,0,0,1
2.482701725337341,-0.6255752842317098,-2.2213854802745314,0,0,0,1
-0.4986719946626591,-2.26258308423171,-2.5067436802745315,0,0,0,1
-4.552894274662659,-2.1227065842317097,-2.731145880274531,0,0,0,1
-6.392874674662659,-0.004395693831709871,-0.2723417602745312,0,0,0,1
0.6246009253373409,2.7590601157682904,3.4871213197254685,0,0,0,1
4.489456725337341,1.94066891576829,2.1610989197254686,0,0,0,1
6.055725725337341,0.35027496576829015,1.0321674197254689,0,0,0,1
6.71630912533734,-1.19531558423171,-0.7368442102745312,0,0,0,1
5.98718122533734,-2.37341738423171,-1.8979420802745313,0,0,0,1
5.98718122533734,-2.37341738423171,-1.8979420802745313,0,0,0,1
5.98718122533734,-2.37341738423171,-1.8979420802745313,0,0,0,1
2.753814225337341,-2.1714877842317097,-3.7189006802745315,0,0,0,1
-2.278730874662659,-1.08652898423171,-1.2650603802745313,0,0,0,1
-6.389384774662659,1.59066311576829,0.7946053197254688,0,0,0,1
-7.1892199746626595,3.0648794157682904,3.0693583197254686,0,0,0,1
1.092157825337341,1.18724101576829,2.6678416197254684,0,0,0,1
1.092157825337341,1.18724101576829,2.6678416197254684,0,0,0,1
4.680850725337341,-0.33456961423170983,0.27693995972546875,0,0,0,1
6.32947302533734,-0.9039395242317099,-1.4344465802745312,0,0,0,1
6.32947302533734,-0.9039395242317099,-1.4344465802745312,0,0,0,1
4.705150125337341,-2.10123248423171,-4.140460680274531,0,0,0,1
0.1857190253373409,-2.15858708423171,-6.1203672802745315,0,0,0,1
0.1857190253373409,-2.15858708423171,-6.1203672802745315,0,0,0,1
0.1857190253373409,-2.15858708423171,-6.1203672802745315,0,0,0,1
-6.8756117746626595,2.9266713157682904,2.1580688197254685,0,0,0,1
-0.4220604746626591,0.6304588157682901,3.4466326197254684,0,0,0,1
-0.4220604746626591,0.6304588157682901,3.4466326197254684,0,0,0,1
2.5754047253373407,-1.19774928423171,0.13868423972546878,0,0,0,1
3.950438025337341,-2.19383838423171,-0.3348317502745312,0,0,0,1
5.252630725337341,-2.6870433842317096,-1.6553425802745312,0,0,0,1
1.010892425337341,0.2629111157682901,-3.2921993802745315,0,0,0,1
1.010892425337341,0.2629111157682901,-3.2921993802745315,0,0,0,1
1.010892425337341,0.2629111157682901,-3.2921993802745315,0,0,0,1
-2.7494721746626594,2.65770941576829,-1.818840580274531,0,0,0,1
-3.707251574662659,3.3092196157682903,-0.25758365027453123,0,0,0,1
-2.670011474662659,2.47406291576829,0.5373222497254688,0,0,0,1
-0.8597988746626591,0.8288438157682901,0.7707270697254688,0,0,0,1
-0.8597988746626591,0.8288438157682901,0.7707270697254688,0,0,0,1
-0.8597988746626591,0.8288438157682901,0.7707270697254688,0,0,0,1
4.01568272533734,-2.2364875842317096,0.7808276197254689,0,0,0,1
4.01568272533734,-2.2364875842317096,0.7808276197254689,0,0,0,1
1.502080425337341,-1.0200860842317099,0.14709600972546877,0,0,0,1
-1.346196674662659,0.34358655576829017,0.8550344197254688,0,0,0,1
-1.346196674662659,0.34358655576829017,0.8550344197254688,0,0,0,1
-1.346196674662659,0.34358655576829017,0.8550344197254688,0,0,0,1
-4.50445457466266,1.44368601576829,0.8988841197254688,0,0,0,1
-2.797033274662659,0.6383232157682901,-0.11307517027453123,0,0,0,1
4.537851725337341,-2.3561307842317096,-0.9862435202745312,0,0,0,1
4.537851725337341,-2.3561307842317096,-0.9862435202745312,0,0,0,1
2.3053957253373407,-0.02750213823170987,-0.3483330302745312,0,0,0,1
2.3053957253373407,-0.02750213823170987,-0.3483330302745312,0,0,0,1
-0.5378565746626591,0.46215565576829015,0.4991722197254688,0,0,0,1
-3.483916274662659,0.7148223157682901,0.7595574497254688,0,0,0,1
-5.039889274662659,0.9802297157682901,1.0235018197254688,0,0,0,1
-5.039889274662659,0.9802297157682901,1.0235018197254688,0,0,0,1
3.6721597253373406,-1.43732548423171,-1.5592449802745312,0,0,0,1
3.068602125337341,-0.7399595242317099,-1.3595926802745313,0,0,0,1
0.8402877253373409,0.15258409576829013,-0.9011551502745312,0,0,0,1
0.8402877253373409,0.15258409576829013,-0.9011551502745312,0,0,0,1
-3.358637274662659,0.49450893576829014,0.7402139197254688,0,0,0,1
-3.358637274662659,0.49450893576829014,0.7402139197254688,0,0,0,1
-3.358637274662659,0.49450893576829014,0.7402139197254688,0,0,0,1
-3.5519856746626592,0.3721965757682901,0.8637444197254688,0,0,0,1
-1.582677374662659,-0.3475702842317099,1.4764888197254689,0,0,0,1
0.4814829953373409,-0.25133575423170984,1.1806201197254689,0,0,0,1
0.4814829953373409,-0.25133575423170984,1.1806201197254689,0,0,0,1
1.159811525337341,0.22897087576829012,0.2432428197254688,0,0,0,1
1.560392825337341,0.2040454057682901,-0.6038240802745312,0,0,0,1
1.682288625337341,-0.9016587842317099,-0.9198013802745312,0,0,0,1
1.682288625337341,-0.9016587842317099,-0.9198013802745312,0,0,0,1
0.5101504253373409,-1.56277628423171,-1.0790246802745311,0,0,0,1
-1.933194574662659,0.7044324157682902,-0.08989134627453123,0,0,0,1
-0.42049072466265913,0.9981625157682902,0.9303314197254688,0,0,0,1
-0.42049072466265913,0.9981625157682902,0.9303314197254688,0,0,0,1
0.1543641253373409,1.1040335157682901,1.4854086197254688,0,0,0,1
-0.04508446066265911,0.6951291757682901,1.3885983197254688,0,0,0,1
0.8319974253373409,-0.41915518423170983,1.2321499197254688,0,0,0,1
1.452337725337341,-1.12519898423171,0.6127641197254688,0,0,0,1
1.452337725337341,-1.12519898423171,0.6127641197254688,0,0,0,1
-1.081493874662659,0.4704433157682901,-0.5823358802745312,0,0,0,1
-1.081493874662659,0.4704433157682901,-0.5823358802745312,0,0,0,1
-1.178339474662659,-0.14114750423170988,-0.7009710402745312,0,0,0,1
-0.3979163046626591,-0.35781840423170985,-0.5258394802745312,0,0,0,1
-0.3979163046626591,-0.35781840423170985,-0.5258394802745312,0,0,0,1
-0.3979163046626591,-0.35781840423170985,-0.5258394802745312,0,0,0,1
0.9533648653373409,0.6116872157682901,-0.15369371027453124,0,0,0,1
1.990815625337341,1.68538791576829,0.48063244972546876,0,0,0,1
0.6714711253373409,0.7134159157682901,0.35094859972546877,0,0,0,1
-1.364577774662659,-0.9362585842317098,-0.28476980027453125,0,0,0,1
0.17984058533734087,0.6270782157682901,0.17861684972546876,0,0,0,1
0.17984058533734087,0.6270782157682901,0.17861684972546876,0,0,0,1
0.17984058533734087,0.6270782157682901,0.17861684972546876,0,0,0,1
0.17984058533734087,0.6270782157682901,0.17861684972546876,0,0,0,1
0.9932484753373408,0.8352317157682901,0.09468134972546877,0,0,0,1
1.331612125337341,0.6560851557682902,0.019626466725468774,0,0,0,1
-0.3173937746626591,0.5950011157682902,-0.6629641402745312,0,0,0,1
-1.059586074662659,0.19140861576829013,-0.6627069802745311,0,0,0,1
-1.059586074662659,0.19140861576829013,-0.6627069802745311,0,0,0,1
-1.177729074662659,-0.6852102842317098,-0.40721478027453123,0,0,0,1
-0.5952944746626591,-1.20022138423171,0.19743736972546877,0,0,0,1
-0.5952944746626591,-1.20022138423171,0.19743736972546877,0,0,0,1
0.3373627853373409,-0.7822648842317098,0.41093977972546875,0,0,0,1
1.334264325337341,0.24051371576829012,0.5615256197254688,0,0,0,1
0.2987342053373409,0.6447763657682901,0.2722550197254688,0,0,0,1
-0.7013888246626591,0.34909217576829016,-0.13044086027453122,0,0,0,1
-0.7013888246626591,0.34909217576829016,-0.13044086027453122,0,0,0,1
-1.051816474662659,-0.030395524231709867,-0.6186837302745312,0,0,0,1
-1.043384974662659,-0.006637625231709871,-0.7117262202745311,0,0,0,1
-1.043384974662659,-0.006637625231709871,-0.7117262202745311,0,0,0,1
-0.6299176046626591,0.46123825576829014,-0.9451252802745311,0,0,0,1
0.3313508253373409,0.16297513576829012,-0.2774696802745312,0,0,0,1
0.7303557553373409,0.04368882976829013,0.2868855897254688,0,0,0,1
0.1239972253373409,0.2805657557682901,0.5347304197254689,0,0,0,1
0.5062022253373409,0.006479043268290128,0.7768856197254689,0,0,0,1
-0.10836838066265911,0.49656997576829015,0.15088947972546876,0,0,0,1
0.020555035337340894,0.26549004576829016,-0.38960841027453125,0,0,0,1
0.2195897253373409,-0.9517147842317099,-0.5060096102745312,0,0,0,1
0.2195897253373409,-0.9517147842317099,-0.5060096102745312,0,0,0,1
-0.7844443146626591,-1.24304468423171,-0.5131097202745312,0,0,0,1
-0.7844443146626591,-1.24304468423171,-0.5131097202745312,0,0,0,1
-1.795901774662659,-0.49145324423170983,-0.2861615802745312,0,0,0,1
1.657305225337341,0.4586403157682901,0.21347721972546876,0,0,0,1
0.39759208533734086,-0.4709476342317099,-0.12841073027453123,0,0,0,1
0.3169045653373409,-1.46118248423171,-0.005761654674531226,0,0,0,1
0.3169045653373409,-1.46118248423171,-0.005761654674531226,0,0,0,1
-0.6842007746626592,0.5142991157682901,0.24895831972546878,0,0,0,1
-0.6842007746626592,0.5142991157682901,0.24895831972546878,0,0,0,1
-0.9749274046626591,1.10139111576829,0.13324638972546876,0,0,0,1
0.2211756853373409,0.46409071576829014,0.11741276972546877,0,0,0,1
0.2211756853373409,0.46409071576829014,0.11741276972546877,0,0,0,1
0.8211569953373409,-0.47477684423170985,-0.09802678027453123,0,0,0,1
0.7301879253373409,0.5752711457682902,-0.007546813824531226,0,0,0,1
1.094460025337341,0.7629538157682901,-0.17839673027453123,0,0,0,1
1.094460025337341,0.7629538157682901,-0.17839673027453123,0,0,0,1
1.094460025337341,0.7629538157682901,-0.17839673027453123,0,0,0,1
0.6490273653373408,0.34877623576829014,-0.6256822802745312,0,0,0,1
-0.0722594096626591,-0.30898218423170987,-0.5936768402745312,0,0,0,1
-0.6737990246626591,-0.5369454442317099,-0.4178735302745312,0,0,0,1
-0.6737990246626591,-0.5369454442317099,-0.4178735302745312,0,0,0,1
0.07551719533734089,0.6417491157682902,0.39313831972546875,0,0,0,1
0.07551719533734089,0.6417491157682902,0.39313831972546875,0,0,0,1
1.058931825337341,-0.17339296423170988,0.10861166972546878,0,0,0,1
0.7599263253373408,-1.59161048423171,0.08935638972546878,0,0,0,1
-0.5963434746626591,-1.55622858423171,-0.22039298027453122,0,0,0,1
-1.688666774662659,-0.6624250242317099,-0.22392407027453123,0,0,0,1
0.1396203253373409,0.8840109157682902,-0.05857208527453122,0,0,0,1
0.6480078853373409,1.12737191576829,-0.28772572027453125,0,0,0,1
0.6480078853373409,1.12737191576829,-0.28772572027453125,0,0,0,1
0.5847125253373409,0.34676693576829015,-0.2540152402745312,0,0,0,1
0.5847125253373409,0.34676693576829015,-0.2540152402745312,0,0,0,1
0.6392493253373409,-0.24183989423170987,0.026060789725468773,0,0,0,1
0.6392493253373409,-0.24183989423170987,0.026060789725468773,0,0,0,1
0.6392493253373409,-0.24183989423170987,0.026060789725468773,0,0,0,1
-0.3667492746626591,0.6916302157682901,-0.06791857027453123,0,0,0,1
-0.7804846746626591,-0.48103151423170987,-0.0062427833745312255,0,0,0,1
-0.7804846746626591,-0.48103151423170987,-0.0062427833745312255,0,0,0,1
-1.634019374662659,-0.4440306842317099,0.09514256972546876,0,0,0,1
-1.171557874662659,-0.20430217423170988,0.43228193972546874,0,0,0,1
0.3939061253373409,0.0018306408882901287,0.5559527597254689,0,0,0,1
1.467118725337341,0.05898255576829013,-0.6235873802745312,0,0,0,1
-0.1767716246626591,-0.7034388842317099,-0.5216940802745311,0,0,0,1
-2.9029044746626593,0.13261127576829013,0.21922602972546876,0,0,0,1
-2.9029044746626593,0.13261127576829013,0.21922602972546876,0,0,0,1
-2.9029044746626593,0.13261127576829013,0.21922602972546876,0,0,0,1
-0.13059567466265912,1.06181841576829,1.010099419725469,0,0,0,1
-0.13059567466265912,1.06181841576829,1.010099419725469,0,0,0,1
1.544990125337341,-0.030384714231709867,0.3197444397254688,0,0,0,1
2.8147530253373407,-0.9673717842317099,-0.5516596202745312,0,0,0,1
-0.7862372246626591,0.6216462157682902,-0.20935944027453124,0,0,0,1
-0.7862372246626591,0.6216462157682902,-0.20935944027453124,0,0,0,1
-2.2422780746626594,1.18647331576829,-0.37821904027453124,0,0,0,1
-2.2422780746626594,1.18647331576829,-0.37821904027453124,0,0,0,1
-2.2422780746626594,1.18647331576829,-0.37821904027453124,0,0,0,1
-1.297311274662659,-0.28909323423170985,0.15195282972546878,0,0,0,1
-0.1849331746626591,-0.5771827542317098,0.9030365597254688,0,0,0,1
-0.1849331746626591,-0.5771827542317098,0.9030365597254688,0,0,0,1
1.169876625337341,-0.33488143423170985,0.7779956697254689,0,0,0,1
2.370687025337341,0.06286611576829013,0.6831517197254688,0,0,0,1
2.363693725337341,0.23448027576829011,0.12308212972546878,0,0,0,1
2.363693725337341,-0.08917358423170987,-1.0690712802745312,0,0,0,1
0.13946105533734088,-0.9109283542317098,-1.2220934802745311,0,0,0,1
