acc_x,acc_y,acc_z,gyro_x,gyro_y,gyro_z,label
3.8716073253373406,-0.8467037542317098,-1.2906429802745312,0,0,0,1
2.704400525337341,-1.24388978423171,-2.2464573802745313,0,0,0,1
0.0018267793373408945,-1.53458788423171,-2.2298476802745313,0,0,0,1
-3.2301225746626594,-0.9470196842317099,-1.146493180274531,0,0,0,1
-3.2301225746626594,-0.9470196842317099,-1.146493180274531,0,0,0,1
-5.412695874662659,1.45591251576829,2.1716508197254685,0,0,0,1
-1.732092374662659,1.08270281576829,2.8302043197254685,0,0,0,1
2.5676875253373406,0.21866986576829012,1.7533768197254689,0,0,0,1
5.101472425337341,-0.7336860842317099,1.132887619725469,0,0,0,1
4.229606125337341,-0.29649678423170983,-1.1984734802745312,0,0,0,1
4.229606125337341,-0.29649678423170983,-1.1984734802745312,0,0,0,1
2.877072725337341,0.37106843576829013,-1.404166180274531,0,0,0,1
-0.7825064746626591,0.9377866557682901,-1.1715129802745312,0,0,0,1
-5.630620274662659,1.5036606157682901,-0.21535954027453122,0,0,0,1
1.097243825337341,0.18749173576829012,0.7618459197254688,0,0,0,1
1.097243825337341,0.18749173576829012,0.7618459197254688,0,0,0,1
1.097243825337341,0.18749173576829012,0.7618459197254688,0,0,0,1
5.261633425337341,-1.61928528423171,0.5767669197254688,0,0,0,1
5.261633425337341,-1.61928528423171,0.5767669197254688,0,0,0,1
2.7808251253373406,-1.0411626842317099,-0.29887846027453124,0,0,0,1
-0.8899559746626591,-0.26738522423170985,0.7579740197254689,0,0,0,1
-4.22599327466266,0.4348178657682901,0.7513868197254688,0,0,0,1
-4.803238274662659,1.26414451576829,1.6459043197254688,0,0,0,1
-2.4688752746626594,1.43456331576829,1.519613019725469,0,0,0,1
1.677359125337341,0.9826802757682901,0.23040559972546876,0,0,0,1
2.1552281253373406,-2.1479732842317096,-2.9750399802745315,0,0,0,1
-4.61784427466266,-6.63674348423171,-1.1142870802745313,0,0,0,1
-7.724702774662659,-5.0327085842317105,1.459422219725469,0,0,0,1
-7.724702774662659,-5.0327085842317105,1.459422219725469,0,0,0,1
2.6565327253373408,1.66646541576829,5.662281719725469,0,0,0,1
2.6565327253373408,1.66646541576829,5.662281719725469,0,0,0,1
5.624421725337341,6.18190151576829,1.502442819725469,0,0,0,1
3.6827483253373408,6.46305391576829,-0.7222476302745312,0,0,0,1
-6.957120874662659,1.53535891576829,5.576185919725469,0,0,0,1
-6.957120874662659,1.53535891576829,5.576185919725469,0,0,0,1
-4.98070857466266,3.7230573157682905,5.557105319725468,0,0,0,1
3.501947925337341,0.03668742176829013,0.03794237972546878,0,0,0,1
2.833726425337341,-2.0475441842317097,-2.3561406802745313,0,0,0,1
-2.079771074662659,-2.0116877842317096,-7.902568180274532,0,0,0,1
-2.079771074662659,-2.0116877842317096,-7.902568180274532,0,0,0,1
-4.7098288746626595,3.12816241576829,0.23101758972546876,0,0,0,1
-4.7098288746626595,3.12816241576829,0.23101758972546876,0,0,0,1
3.7084365253373406,0.41500781576829016,1.2731257197254688,0,0,0,1
2.939985725337341,-1.0217460842317099,1.0723862197254688,0,0,0,1
2.939985725337341,-1.0217460842317099,1.0723862197254688,0,0,0,1
1.801916625337341,-3.61292528423171,-0.9066460802745312,0,0,0,1
-1.426783074662659,-5.50331448423171,-0.30808583027453124,0,0,0,1
-5.286289274662659,-1.3768042842317099,3.1665499197254685,0,0,0,1
1.858559125337341,5.16096451576829,1.8299515197254688,0,0,0,1
1.858559125337341,5.16096451576829,1.8299515197254688,0,0,0,1
4.930786725337341,4.79853921576829,-0.7062016402745311,0,0,0,1
4.930786725337341,4.79853921576829,-0.7062016402745311,0,0,0,1
1.452732625337341,-4.56895808423171,-8.63818768027453,0,0,0,1
1.452732625337341,-4.56895808423171,-8.63818768027453,0,0,0,1
-2.2625402746626593,-5.52567608423171,-6.775032280274531,0,0,0,1
-3.539495974662659,3.6387887157682903,6.331002919725469,0,0,0,1
1.657868925337341,0.49591328576829014,5.679527019725469,0,0,0,1
1.657868925337341,0.49591328576829014,5.679527019725469,0,0,0,1
3.7332845253373406,-2.4614061842317096,2.254004919725469,0,0,0,1
5.329702725337341,-1.72148608423171,-1.882044080274531,0,0,0,1
4.4192397253373406,-0.48278329423170985,-3.065968680274531,0,0,0,1
-2.930181474662659,1.42144351576829,-5.265924680274531,0,0,0,1
-2.930181474662659,1.42144351576829,-5.265924680274531,0,0,0,1
-4.470841874662659,2.19012621576829,0.5188914197254688,0,0,0,1
-4.470841874662659,2.19012621576829,0.5188914197254688,0,0,0,1
2.9499268253373407,0.7872729157682902,2.3222173197254685,0,0,0,1
5.912075725337341,0.29959631576829016,1.8373849197254688,0,0,0,1
5.912075725337341,0.29959631576829016,1.8373849197254688,0,0,0,1
3.4129367253373406,-0.11090056423170987,-0.37265478027453125,0,0,0,1
1.866038825337341,-0.6039012442317099,-1.8734129802745312,0,0,0,1
1.866038825337341,-0.6039012442317099,-1.8734129802745312,0,0,0,1
-5.651170274662659,0.5815161657682901,-1.8306273802745312,0,0,0,1
-5.799976774662659,1.51235911576829,-1.608740880274531,0,0,0,1
-1.082694474662659,0.7817094157682901,-0.3827000002745312,0,0,0,1
2.2505631253373406,-0.47116508423170983,-0.9228674802745311,0,0,0,1
3.7755027253373408,-1.54782748423171,0.03235056972546878,0,0,0,1
1.319660725337341,-1.47737628423171,0.46835071972546877,0,0,0,1
1.319660725337341,-1.47737628423171,0.46835071972546877,0,0,0,1
-2.877983574662659,-1.3622718842317099,0.7605313197254688,0,0,0,1
-4.648076474662659,-0.7514713842317099,0.8905359197254689,0,0,0,1
-3.6592888746626593,-0.4112410342317099,1.1267281197254688,0,0,0,1
0.4382701053373409,1.2578800157682901,-0.6384210302745311,0,0,0,1
0.4382701053373409,1.2578800157682901,-0.6384210302745311,0,0,0,1
0.4382701053373409,1.2578800157682901,-0.6384210302745311,0,0,0,1
2.7122750253373407,-1.02096338423171,-1.7253724802745312,0,0,0,1
0.19877864533734088,-0.8898790842317098,-1.3901234802745313,0,0,0,1
0.19877864533734088,-0.8898790842317098,-1.3901234802745313,0,0,0,1
-3.1514000746626594,0.9972758157682902,0.6740080197254689,0,0,0,1
-3.4397396746626594,0.8096071657682902,1.2141943197254688,0,0,0,1
-3.4397396746626594,0.8096071657682902,1.2141943197254688,0,0,0,1
-1.096229974662659,-0.11835555423170988,1.587357719725469,0,0,0,1
3.007846325337341,0.1547342757682901,-0.3050831302745312,0,0,0,1
3.007846325337341,0.1547342757682901,-0.3050831302745312,0,0,0,1
3.007846325337341,0.1547342757682901,-0.3050831302745312,0,0,0,1
1.352552925337341,0.08158190576829014,-1.265732780274531,0,0,0,1
-3.037298274662659,-0.8379856142317098,-0.8880916802745312,0,0,0,1
-1.629246274662659,0.5605874157682902,0.21300669972546876,0,0,0,1
1.211659925337341,1.08060911576829,0.7005336597254688,0,0,0,1
1.211659925337341,1.08060911576829,0.7005336597254688,0,0,0,1
2.9026237253373406,0.48085303576829014,0.5792064197254688,0,0,0,1
-0.21188019466265912,-1.92948168423171,0.008485762725468773,0,0,0,1
-0.21188019466265912,-1.92948168423171,0.008485762725468773,0,0,0,1
-0.21188019466265912,-1.92948168423171,0.008485762725468773,0,0,0,1
-3.427138774662659,1.94074801576829,0.08991750972546877,0,0,0,1
-3.427138774662659,1.94074801576829,0.08991750972546877,0,0,0,1
1.531737825337341,0.2258477657682901,-0.7898001802745311,0,0,0,1
1.978837525337341,-0.8937012842317098,-1.1322344802745312,0,0,0,1
1.978837525337341,-0.8937012842317098,-1.1322344802745312,0,0,0,1
0.7990832253373409,-0.9439229142317098,-0.19772896027453124,0,0,0,1
-1.665480074662659,1.47465041576829,0.5829248697254689,0,0,0,1
-1.665480074662659,1.47465041576829,0.5829248697254689,0,0,0,1
-0.4992985546626591,0.6275885157682901,0.6510059197254688,0,0,0,1
2.057163725337341,-0.47185658423170984,-0.5792866802745312,0,0,0,1
2.057163725337341,-0.47185658423170984,-0.5792866802745312,0,0,0,1
2.057163725337341,-0.47185658423170984,-0.5792866802745312,0,0,0,1
-0.4397406446626591,1.36044391576829,-0.9275871802745311,0,0,0,1
-1.731837774662659,-0.09635238023170987,0.030649332725468773,0,0,0,1
-1.731837774662659,-0.09635238023170987,0.030649332725468773,0,0,0,1
-1.132626074662659,0.09861781076829013,0.2690103597254688,0,0,0,1
2.9369950253373407,-0.19512228423170988,0.24813004972546876,0,0,0,1
-1.980626574662659,-1.37033218423171,-0.13480368027453124,0,0,0,1
-2.206618274662659,-0.41535813423170986,-0.16739282027453123,0,0,0,1
-1.753283974662659,0.5668520157682901,0.23394339972546876,0,0,0,1
3.7850242253373407,0.2441269457682901,0.43675407972546876,0,0,0,1
3.7850242253373407,0.2441269457682901,0.43675407972546876,0,0,0,1
3.7850242253373407,0.2441269457682901,0.43675407972546876,0,0,0,1
-1.468966974662659,-1.6548810842317099,-0.5743605802745312,0,0,0,1
-2.0927109746626593,1.1127055157682901,-0.21939245027453122,0,0,0,1
-2.0927109746626593,1.1127055157682901,-0.21939245027453122,0,0,0,1
1.430028425337341,1.5509779157682901,0.47142296972546877,0,0,0,1
1.430028425337341,1.5509779157682901,0.47142296972546877,0,0,0,1
2.6145253253373406,0.9876960657682902,0.06494351972546877,0,0,0,1
1.357615925337341,-0.34420753423170986,-0.6758718802745312,0,0,0,1
-1.018586574662659,-0.33675748423170987,-0.5034140102745313,0,0,0,1
-3.8951234746626593,0.7402831457682901,-0.48747435027453123,0,0,0,1
-3.0925006746626593,0.31745638576829016,0.4440874997254688,0,0,0,1
-3.0925006746626593,0.31745638576829016,0.4440874997254688,0,0,0,1
2.0436826253373406,0.17551781576829012,0.24118825972546876,0,0,0,1
2.8945651253373406,-0.4509028842317099,-0.6729432802745312,0,0,0,1
2.8945651253373406,-0.4509028842317099,-0.6729432802745312,0,0,0,1
-0.2110895946626591,-0.24310158423170988,-0.4877468102745312,0,0,0,1
-3.6628918746626593,0.7019145657682901,-0.28885153027453125,0,0,0,1
-4.2966322746626595,0.6832943157682901,-0.4167651202745312,0,0,0,1
0.6938529253373409,-0.8586218142317098,0.20989736972546877,0,0,0,1
2.286115225337341,0.1935134857682901,-0.11081609027453122,0,0,0,1
3.284250725337341,1.40167931576829,0.28700163972546877,0,0,0,1
3.284250725337341,1.40167931576829,0.28700163972546877,0,0,0,1
-1.295363874662659,-0.9698542842317098,-0.6899834802745312,0,0,0,1
-1.295363874662659,-0.9698542842317098,-0.6899834802745312,0,0,0,1
-3.247023074662659,-1.23996458423171,-1.1221990802745312,0,0,0,1
-1.227203874662659,0.5654219557682901,0.3176998497254688,0,0,0,1
1.262938025337341,1.34073971576829,0.6703635197254688,0,0,0,1
1.262938025337341,1.34073971576829,0.6703635197254688,0,0,0,1
4.269034725337341,0.9917593757682901,0.4860015197254688,0,0,0,1
3.6575189253373406,0.2375341257682901,-1.0674656802745313,0,0,0,1
-5.314135974662659,-0.8493852442317098,-0.7031614802745312,0,0,0,1
-5.314135974662659,-0.8493852442317098,-0.7031614802745312,0,0,0,1
1.343044725337341,1.60961341576829,0.44826039972546877,0,0,0,1
1.343044725337341,1.60961341576829,0.44826039972546877,0,0,0,1
4.491361125337341,0.5206464157682902,0.32390745972546875,0,0,0,1
5.275810725337341,-0.44226310423170984,-0.6323247302745312,0,0,0,1
0.7525315253373409,-1.20194078423171,-1.666591280274531,0,0,0,1
0.7525315253373409,-1.20194078423171,-1.666591280274531,0,0,0,1
-4.427387274662659,1.13958911576829,0.5399286197254688,0,0,0,1
-4.427387274662659,1.13958911576829,0.5399286197254688,0,0,0,1
-1.455894974662659,0.18604855576829013,0.7148193197254689,0,0,0,1
0.8474393253373409,0.021225947768290128,0.6241690797254689,0,0,0,1
4.362545725337341,-1.07049728423171,-0.2780086102745312,0,0,0,1
4.362545725337341,-1.07049728423171,-0.2780086102745312,0,0,0,1
-1.685355674662659,0.8000336157682901,-0.11294755527453124,0,0,0,1
-1.685355674662659,0.8000336157682901,-0.11294755527453124,0,0,0,1
-3.1668939746626594,1.06080081576829,-0.09369716027453123,0,0,0,1
-2.810687974662659,0.7932946157682902,-0.45248291027453125,0,0,0,1
