acc_x,acc_y,acc_z,gyro_x,gyro_y,gyro_z,label
-0.3480419946626591,0.5282557157682901,-0.21289113027453124,0,0,0,1
0.11675121033734089,-1.76892938423171,-0.020729871274531225,0,0,0,1
-1.365425574662659,-1.88363048423171,0.016425876725468774,0,0,0,1
-2.101251074662659,-0.5702991342317099,0.29306455972546874,0,0,0,1
-2.101251074662659,-0.5702991342317099,0.29306455972546874,0,0,0,1
2.2800259253373407,1.59685031576829,0.4353857597254688,0,0,0,1
2.2800259253373407,1.59685031576829,0.4353857597254688,0,0,0,1
1.517834225337341,1.17914611576829,-0.47173640027453123,0,0,0,1
-2.160160574662659,-1.60739388423171,-1.3316048802745313,0,0,0,1
-2.1597837746626594,-1.60816448423171,-1.326558380274531,0,0,0,1
1.046652325337341,0.48046990576829013,0.27401621972546875,0,0,0,1
1.046652325337341,0.48046990576829013,0.27401621972546875,0,0,0,1
0.6863742253373409,0.5093084757682902,0.45000814972546876,0,0,0,1
1.595649225337341,-1.04628528423171,0.9711482797254688,0,0,0,1
-0.2534203346626591,0.6672377757682901,0.7725266197254689,0,0,0,1
-0.2534203346626591,0.6672377757682901,0.7725266197254689,0,0,0,1
1.455809125337341,1.18147041576829,-0.23424718027453123,0,0,0,1
2.333089325337341,0.2815977157682901,-0.8449506802745311,0,0,0,1
1.188396925337341,0.1430531757682901,-1.0621560802745311,0,0,0,1
1.188396925337341,0.1430531757682901,-1.0621560802745311,0,0,0,1
0.7842507253373409,-0.8333134842317098,-1.1049656802745311,0,0,0,1
-1.633851474662659,-0.9197420842317099,-0.30725488027453124,0,0,0,1
-2.575697874662659,-0.40363026423170983,0.5890501197254688,0,0,0,1
2.0298457253373408,0.7521062657682901,1.5557599197254688,0,0,0,1
2.0298457253373408,0.7521062657682901,1.5557599197254688,0,0,0,1
2.2451053253373408,0.3191427157682901,-0.5408105802745312,0,0,0,1
2.2451053253373408,0.3191427157682901,-0.5408105802745312,0,0,0,1
2.237387225337341,-1.54662658423171,-1.7578294802745311,0,0,0,1
-2.954969274662659,1.56969751576829,-0.9840050802745312,0,0,0,1
-2.954969274662659,1.56969751576829,-0.9840050802745312,0,0,0,1
-2.954969274662659,1.56969751576829,-0.9840050802745312,0,0,0,1
1.192258325337341,-0.4114850842317099,0.3941444697254688,0,0,0,1
-1.917739374662659,0.8345697157682902,0.5825657197254688,0,0,0,1
-1.917827074662659,0.8356946157682902,0.5811155197254688,0,0,0,1
-0.4393229346626591,-1.13677758423171,-0.23569074027453124,0,0,0,1
1.414817325337341,0.11573846976829014,-1.7773879802745312,0,0,0,1
1.414817325337341,0.11573846976829014,-1.7773879802745312,0,0,0,1
-0.019270403662659107,0.4521342957682901,-2.1169612802745315,0,0,0,1
-0.019270403662659107,0.4521342957682901,-2.1169612802745315,0,0,0,1
-3.173427574662659,1.20722201576829,0.9961869197254689,0,0,0,1
-0.1958222246626591,1.30729371576829,1.919056419725469,0,0,0,1
-0.1958222246626591,1.30729371576829,1.919056419725469,0,0,0,1
2.468371925337341,-0.12450791423170986,0.13735433972546876,0,0,0,1
2.3212953253373407,-0.9638702842317098,-0.7267487402745312,0,0,0,1
-1.732864874662659,-0.09021900423170987,-1.339123080274531,0,0,0,1
-1.732864874662659,-0.09021900423170987,-1.339123080274531,0,0,0,1
-3.6906270746626593,0.43752654576829014,-1.0861353802745313,0,0,0,1
0.7194447653373409,-0.8312869842317099,-0.36022303027453123,0,0,0,1
0.7194447653373409,-0.8312869842317099,-0.36022303027453123,0,0,0,1
0.7194447653373409,-0.8312869842317099,-0.36022303027453123,0,0,0,1
1.751077225337341,0.7121820157682901,0.49670966972546876,0,0,0,1
1.511726825337341,0.41556634576829016,0.9217579197254688,0,0,0,1
-0.14175556466265912,-0.29245073423170986,1.2521431197254689,0,0,0,1
-2.1726483746626593,-0.6764561342317098,0.6552465797254688,0,0,0,1
0.18490935533734087,0.0009731237682901286,0.11126425972546877,0,0,0,1
1.429823425337341,0.37353979576829016,-0.2969822002745312,0,0,0,1
1.361784425337341,0.0026182715682901286,-0.8065581802745312,0,0,0,1
1.152889725337341,-0.7985852842317098,-0.6621377202745312,0,0,0,1
0.26691962533734087,-1.14616978423171,-0.22025934027453123,0,0,0,1
-1.252299774662659,0.1561125557682901,0.3611926397254688,0,0,0,1
-2.085034874662659,1.38662471576829,0.9152344197254688,0,0,0,1
0.7292580753373409,1.23749011576829,0.9710629197254689,0,0,0,1
0.8952031253373409,-0.5093053842317099,-0.5516791802745312,0,0,0,1
0.8370061253373409,-1.64648988423171,-1.1244963802745311,0,0,0,1
0.16057445533734088,-1.80922598423171,-1.0430963802745312,0,0,0,1
-0.9727368146626592,0.19221699576829013,-0.44250682027453125,0,0,0,1
0.2555461053373409,0.22862689576829012,-0.023455174274531226,0,0,0,1
1.419884225337341,0.06206296576829013,0.27299096972546877,0,0,0,1
1.663656725337341,0.1284199357682901,0.11638113972546878,0,0,0,1
1.254831825337341,0.9020090157682902,0.04485585972546878,0,0,0,1
0.40919734533734087,1.01253331576829,-0.2958280802745312,0,0,0,1
0.40919734533734087,1.01253331576829,-0.2958280802745312,0,0,0,1
-2.233963974662659,-0.33533386423170986,-1.087598880274531,0,0,0,1
-1.871622074662659,-0.7973549142317099,-0.5783330802745311,0,0,0,1
-0.1782021346626591,-0.7329156842317098,-0.20238462027453122,0,0,0,1
2.3483739253373406,0.4310570557682901,-0.031997414274531226,0,0,0,1
3.8399587253373406,0.8646489557682902,0.18648668972546878,0,0,0,1
3.8399587253373406,0.8646489557682902,0.18648668972546878,0,0,0,1
2.8650889253373406,0.22214396576829012,-0.35373166027453123,0,0,0,1
-2.898692074662659,-0.8345219842317099,-0.5241548802745312,0,0,0,1
-2.3958129746626593,1.30673401576829,0.6799631197254689,0,0,0,1
-2.3958129746626593,1.30673401576829,0.6799631197254689,0,0,0,1
0.8067774953373409,0.7311879557682901,0.20840450972546878,0,0,0,1
0.8067774953373409,0.7311879557682901,0.20840450972546878,0,0,0,1
1.962687025337341,-1.98183988423171,-1.6563059802745312,0,0,0,1
1.962687025337341,-1.98183988423171,-1.6563059802745312,0,0,0,1
-0.9247746346626591,-1.31540378423171,-0.6508769102745312,0,0,0,1
-3.788042574662659,1.64154461576829,0.7838809197254688,0,0,0,1
-3.7884182746626593,1.63155871576829,0.7827515897254689,0,0,0,1
3.826859025337341,0.31956241576829014,-0.8030358802745312,0,0,0,1
3.826859025337341,0.31956241576829014,-0.8030358802745312,0,0,0,1
3.5326304253373406,-0.9021877442317099,-1.3102698802745312,0,0,0,1
-2.994914974662659,-1.01784058423171,-0.7150264802745312,0,0,0,1
-5.6417232746626595,0.6460783657682901,-0.05743375527453122,0,0,0,1
-3.380510774662659,1.31720811576829,1.2976789197254688,0,0,0,1
-0.0378212766626591,0.8967324657682901,1.219929919725469,0,0,0,1
-0.0378212766626591,0.8967324657682901,1.219929919725469,0,0,0,1
3.8639913253373406,-1.23560128423171,-0.8036014202745312,0,0,0,1
2.131831725337341,-1.87920558423171,-1.1311595802745311,0,0,0,1
2.131831725337341,-1.87920558423171,-1.1311595802745311,0,0,0,1
-1.250960774662659,-0.02364749823170987,-0.6954590402745312,0,0,0,1
-1.967217474662659,1.61467711576829,-0.5456387102745311,0,0,0,1
-1.967217474662659,1.61467711576829,-0.5456387102745311,0,0,0,1
1.146656525337341,-0.7359058842317099,-0.4412439802745312,0,0,0,1
0.9308886653373409,-0.7604785842317099,0.0012034457254687754,0,0,0,1
0.3057875753373409,-0.41665692423170986,0.9434714597254689,0,0,0,1
-0.8829130746626591,0.11630282176829013,1.2879099197254689,0,0,0,1
-0.8829130746626591,0.11630282176829013,1.2879099197254689,0,0,0,1
-0.8829130746626591,0.11630282176829013,1.2879099197254689,0,0,0,1
1.212783325337341,-0.9978645842317099,-0.31363467027453124,0,0,0,1
1.212783325337341,-0.9978645842317099,-0.31363467027453124,0,0,0,1
1.053860225337341,-0.7858930842317099,-0.6991464202745312,0,0,0,1
1.2262149253373409,-0.09323103423170986,-0.9371754202745312,0,0,0,1
-0.5241207746626592,1.16531891576829,-0.4129695002745312,0,0,0,1
-1.398643974662659,0.6939066157682902,-0.5969746402745312,0,0,0,1
-1.398643974662659,0.6939066157682902,-0.5969746402745312,0,0,0,1
-1.398643974662659,0.6939066157682902,-0.5969746402745312,0,0,0,1
-1.252235874662659,-0.6204297342317099,-0.23700145027453123,0,0,0,1
0.3868155653373409,0.7535649757682902,0.9630023497254688,0,0,0,1
2.9175296253373406,0.16715884576829013,0.8688826197254689,0,0,0,1
0.9472575253373409,-0.2665572842317099,-1.3739650802745311,0,0,0,1
-1.784358974662659,0.5918678157682902,-0.6666209802745312,0,0,0,1
-1.784358974662659,0.5918678157682902,-0.6666209802745312,0,0,0,1
3.317881125337341,-0.5275439442317098,-1.1067198802745313,0,0,0,1
4.4855267253373405,-1.31185108423171,-0.20166770027453124,0,0,0,1
5.154630225337341,-1.49138018423171,0.13269629972546876,0,0,0,1
3.6949611253373407,-1.09512498423171,-0.12382838027453123,0,0,0,1
0.1631398353373409,0.23599391576829012,-0.3561525102745312,0,0,0,1
-2.9382605746626593,1.2115405157682901,0.4484263897254688,0,0,0,1
-2.9575328746626592,1.7462535157682901,0.7106385497254688,0,0,0,1
-2.9575328746626592,1.7462535157682901,0.7106385497254688,0,0,0,1
-0.7983155046626591,0.40837671576829015,-0.2889164402745312,0,0,0,1
3.8683152253373407,-2.2788073842317096,-0.7393062802745312,0,0,0,1
3.6984420253373407,-1.9130331842317099,-0.4120806802745312,0,0,0,1
1.320215725337341,-0.29116011423170984,-0.10849842627453123,0,0,0,1
-1.958967174662659,0.8295785157682901,0.017205624725468775,0,0,0,1
-3.102520474662659,0.9458455157682901,0.5998228197254688,0,0,0,1
-1.942020374662659,-0.32280845423170984,0.09179821472546877,0,0,0,1
1.844951125337341,-0.6437109542317099,-1.766925080274531,0,0,0,1
1.844951125337341,-0.6437109542317099,-1.766925080274531,0,0,0,1
2.485902325337341,-0.8265596442317099,-0.5653184402745312,0,0,0,1
-0.9207520346626591,0.6940402157682901,0.17311336972546876,0,0,0,1
-0.9207520346626591,0.6940402157682901,0.17311336972546876,0,0,0,1
0.5154290253373409,-1.06594708423171,0.4623137397254688,0,0,0,1
0.2037825753373409,-0.02199186023170987,-0.49957726027453125,0,0,0,1
1.382127325337341,0.12690897576829013,-0.9717276802745312,0,0,0,1
1.382127325337341,0.12690897576829013,-0.9717276802745312,0,0,0,1
1.364717025337341,0.031190294768290126,-0.6115397802745312,0,0,0,1
-2.877471874662659,1.22997451576829,-0.7591952402745312,0,0,0,1
-2.877471874662659,1.22997451576829,-0.7591952402745312,0,0,0,1
-2.959973274662659,1.18037081576829,0.05818029972546878,0,0,0,1
0.6911521253373409,-0.9439724842317099,-0.09936270027453123,0,0,0,1
0.5513758853373409,-0.8217557442317098,-0.21775344027453122,0,0,0,1
1.491011125337341,-1.41895468423171,0.13487544972546878,0,0,0,1
-1.355482574662659,0.25950394576829017,0.49943241972546876,0,0,0,1
-2.9935998746626593,0.7314060157682901,0.31561633972546876,0,0,0,1
-1.773919074662659,-0.1494518042317099,0.04852077172546878,0,0,0,1
-0.7889666346626591,-0.9003257842317098,0.010668007725468776,0,0,0,1
0.8659138853373409,-0.9402362542317099,-0.7592361802745312,0,0,0,1
2.7099395253373406,-0.9972040842317098,-0.30409846027453125,0,0,0,1
2.3744627253373407,0.07976113576829014,-0.14396754027453124,0,0,0,1
0.7117352653373409,1.42782941576829,-0.16342393027453123,0,0,0,1
-0.4560217746626591,1.35538481576829,0.07863589972546876,0,0,0,1
-2.3448204746626593,0.35709516576829015,-0.6153472802745312,0,0,0,1
-2.3448204746626593,0.35709516576829015,-0.6153472802745312,0,0,0,1
-2.113585474662659,-0.5220658842317099,-0.9170930802745312,0,0,0,1
-0.4798302446626591,-0.7240354242317099,-0.7421120802745311,0,0,0,1
0.9136195253373409,0.26417924576829016,0.35393964972546876,0,0,0,1
0.9136195253373409,0.26417924576829016,0.35393964972546876,0,0,0,1
0.9136195253373409,0.26417924576829016,0.35393964972546876,0,0,0,1
0.035773770337340895,-0.21834911423170988,0.4412525597254688,0,0,0,1
-1.404052274662659,-1.03808548423171,0.07610728972546878,0,0,0,1
-1.331464274662659,-1.53657538423171,-0.24728796027453123,0,0,0,1
-1.331464274662659,-1.53657538423171,-0.24728796027453123,0,0,0,1
1.564229525337341,1.32187341576829,0.09584775372546878,0,0,0,1
1.564229525337341,1.32187341576829,0.09584775372546878,0,0,0,1
1.564229525337341,1.32187341576829,0.09584775372546878,0,0,0,1
