acc_x,acc_y,acc_z,gyro_x,gyro_y,gyro_z,label
-1.753392674662659,2.33455091576829,0.047063319725468775,0,0,0,1
-1.753392674662659,2.33455091576829,0.047063319725468775,0,0,0,1
-3.1801104746626594,1.87350511576829,-0.17690560027453123,0,0,0,1
-0.1902546746626591,-1.38797188423171,-0.27096394027453125,0,0,0,1
0.04485370333734089,-0.9601763842317098,-0.8148335802745311,0,0,0,1
0.6861930253373408,-0.5411635842317098,-0.7348931802745312,0,0,0,1
2.295272325337341,-0.47667008423170987,-0.4952795202745312,0,0,0,1
2.295272325337341,-0.47667008423170987,-0.4952795202745312,0,0,0,1
2.005436425337341,-0.29925368423170984,-0.20965526027453124,0,0,0,1
-1.068746074662659,-0.1516899542317099,-0.04770055527453122,0,0,0,1
-2.8167867746626594,0.5100058157682902,0.39930959972546876,0,0,0,1
-2.8167867746626594,0.5100058157682902,0.39930959972546876,0,0,0,1
0.0966582453373409,1.09565821576829,-0.5036504602745312,0,0,0,1
-0.12303207466265911,0.5459737157682901,-1.1714555802745312,0,0,0,1
1.886153725337341,-0.5374399242317098,-1.1337802802745311,0,0,0,1
1.470052225337341,-1.02529258423171,-1.206153880274531,0,0,0,1
1.470052225337341,-1.02529258423171,-1.206153880274531,0,0,0,1
-1.536303074662659,-0.11052850423170987,-1.3895540802745312,0,0,0,1
-2.015490474662659,0.8081508457682901,-0.3742887802745312,0,0,0,1
-2.015490474662659,0.8081508457682901,-0.3742887802745312,0,0,0,1
-0.22215793466265912,0.26963283576829017,0.19699021972546876,0,0,0,1
-0.37535332466265914,0.09030737576829014,0.16295119972546876,0,0,0,1
1.411116125337341,-0.9483339842317099,0.5826169197254688,0,0,0,1
1.411116125337341,-0.9483339842317099,0.5826169197254688,0,0,0,1
1.411116125337341,-0.9483339842317099,0.5826169197254688,0,0,0,1
2.3042693253373407,-1.70358098423171,-0.38336930027453126,0,0,0,1
-0.13456677466265912,-1.63115728423171,-0.5293874802745312,0,0,0,1
-1.879261974662659,-0.05060536823170987,-0.49647488027453124,0,0,0,1
-0.8836817746626591,2.04028231576829,0.14931371972546878,0,0,0,1
-0.6815705146626592,2.2744710157682904,-0.7524603802745312,0,0,0,1
2.0609641253373407,-2.2706143842317097,-1.6214919802745311,0,0,0,1
2.0609641253373407,-2.2706143842317097,-1.6214919802745311,0,0,0,1
1.260001725337341,-2.4231454842317097,-1.4142122802745312,0,0,0,1
1.260001725337341,-2.4231454842317097,-1.4142122802745312,0,0,0,1
-0.033565028662659105,-0.35958976423170985,-0.6573031302745311,0,0,0,1
-0.033565028662659105,-0.35958976423170985,-0.6573031302745311,0,0,0,1
-0.7823290746626591,1.04096941576829,1.2239940197254688,0,0,0,1
-1.001514874662659,-0.9273700542317098,0.5386264197254689,0,0,0,1
-1.001514874662659,-0.9273700542317098,0.5386264197254689,0,0,0,1
0.3275838053373409,-1.25733628423171,-0.34977225027453124,0,0,0,1
0.3275838053373409,-1.25733628423171,-0.34977225027453124,0,0,0,1
0.9902224653373409,0.8149143157682901,-1.139699180274531,0,0,0,1
-1.850548274662659,1.13931631576829,-0.4254887402745312,0,0,0,1
0.11970664533734089,0.10085887076829013,-0.3705203802745312,0,0,0,1
0.11970664533734089,0.10085887076829013,-0.3705203802745312,0,0,0,1
1.917763225337341,-0.6511130842317099,-0.46135393027453125,0,0,0,1
2.126266025337341,-1.0383248842317099,-0.3001381502745312,0,0,0,1
1.034413825337341,-0.8010695442317098,-0.06082550027453122,0,0,0,1
1.034413825337341,-0.8010695442317098,-0.06082550027453122,0,0,0,1
-0.4229922146626591,-0.32392488423170984,0.19870521972546876,0,0,0,1
-2.0011901746626592,0.4315504157682901,0.5934872197254688,0,0,0,1
-2.201123674662659,1.44045811576829,0.2911035197254688,0,0,0,1
-2.201123674662659,1.44045811576829,0.2911035197254688,0,0,0,1
-0.1785044546626591,0.20131451576829013,0.03966435672546878,0,0,0,1
1.826842825337341,0.13281935576829013,-1.4689919802745313,0,0,0,1
1.826842825337341,0.13281935576829013,-1.4689919802745313,0,0,0,1
2.801716325337341,0.5056642457682902,-0.9503609302745312,0,0,0,1
2.801716325337341,0.5056642457682902,-0.9503609302745312,0,0,0,1
-1.974076774662659,-0.24610808423170988,-0.07848790427453123,0,0,0,1
-1.974076774662659,-0.24610808423170988,-0.07848790427453123,0,0,0,1
-1.960950374662659,-1.59466208423171,0.5927437197254688,0,0,0,1
-1.166268774662659,-1.46892378423171,0.37024363972546875,0,0,0,1
-1.166268774662659,-1.46892378423171,0.37024363972546875,0,0,0,1
-0.0478854016626591,-0.2110826442317099,0.7996223897254688,0,0,0,1
1.322628525337341,0.3113200857682901,-0.28515330027453123,0,0,0,1
1.322628525337341,0.3113200857682901,-0.28515330027453123,0,0,0,1
0.3184962453373409,-0.5060092842317099,-1.0429567802745312,0,0,0,1
-0.40341517466265914,0.11232865576829013,-0.9580050802745311,0,0,0,1
-0.8505778146626591,2.4027791157682903,-0.3865917002745312,0,0,0,1
-0.3556570746626591,0.8049645557682902,-0.3484886002745312,0,0,0,1
-0.3556570746626591,0.8049645557682902,-0.3484886002745312,0,0,0,1
0.16274215533734088,-1.63230928423171,0.30142321972546876,0,0,0,1
0.16274215533734088,-1.63230928423171,0.30142321972546876,0,0,0,1
0.16274215533734088,-1.63230928423171,0.30142321972546876,0,0,0,1
1.041965025337341,-0.9635067442317099,1.3559575197254687,0,0,0,1
0.4192996253373409,0.9161312757682901,0.7926361197254689,0,0,0,1
-1.046435774662659,0.11767322576829013,-0.9196143502745312,0,0,0,1
-1.052111174662659,1.10664331576829,-1.599625480274531,0,0,0,1
-1.052111174662659,1.10664331576829,-1.599625480274531,0,0,0,1
-0.057677729662659105,1.90323931576829,-1.0133624802745311,0,0,0,1
2.7394376253373407,-1.08381308423171,-0.46764388027453124,0,0,0,1
-0.4015021146626591,-0.05729083423170987,0.9018236197254689,0,0,0,1
-2.6972784746626592,1.4601227157682901,1.8217963197254687,0,0,0,1
-3.3181948746626593,1.0101812157682901,0.7098170197254688,0,0,0,1
-0.5281023746626591,-2.8222996842317096,-0.6592688802745311,0,0,0,1
0.5487771253373409,-1.27461958423171,-1.3591678802745313,0,0,0,1
2.750213125337341,0.6063093157682902,-1.296230580274531,0,0,0,1
2.750213125337341,0.6063093157682902,-1.296230580274531,0,0,0,1
3.6316267253373407,1.8709078157682901,-0.9963188502745312,0,0,0,1
3.6316267253373407,1.8709078157682901,-0.9963188502745312,0,0,0,1
-2.1513919746626593,0.04723424776829013,0.25282146972546876,0,0,0,1
-3.0888585746626593,-0.8470418842317099,0.09147938972546878,0,0,0,1
-3.0888585746626593,-0.8470418842317099,0.09147938972546878,0,0,0,1
2.097768325337341,-0.48733560423170985,0.06957193972546877,0,0,0,1
2.097768325337341,-0.48733560423170985,0.06957193972546877,0,0,0,1
2.097768325337341,-0.48733560423170985,0.06957193972546877,0,0,0,1
1.672697525337341,0.5103798657682902,-0.45160642027453124,0,0,0,1
-0.3202586046626591,1.22625661576829,-0.8362709802745312,0,0,0,1
-1.610584674662659,0.06434262176829013,-1.3540538802745312,0,0,0,1
-1.786702174662659,-0.9388488842317099,-1.212984080274531,0,0,0,1
-1.786702174662659,-0.9388488842317099,-1.212984080274531,0,0,0,1
-1.663128374662659,-0.5977269242317098,-0.015372426874531225,0,0,0,1
2.065131725337341,1.80428981576829,0.7368786197254689,0,0,0,1
2.065131725337341,1.80428981576829,0.7368786197254689,0,0,0,1
3.376992725337341,1.39785601576829,1.1132733197254687,0,0,0,1
-0.007848246662659104,-1.26934808423171,-0.8637515802745311,0,0,0,1
-0.007848246662659104,-1.26934808423171,-0.8637515802745311,0,0,0,1
-3.2269119746626593,0.5898047157682902,-0.9460317202745312,0,0,0,1
-3.2269119746626593,0.5898047157682902,-0.9460317202745312,0,0,0,1
-2.623550874662659,1.31116401576829,-0.49147835027453124,0,0,0,1
0.2599740253373409,0.6523278157682901,0.3322497197254688,0,0,0,1
2.9380107253373406,-0.08968709423170987,-0.3626503102745312,0,0,0,1
3.0830064253373406,-0.5852782842317099,-0.46572140027453124,0,0,0,1
2.365067925337341,-0.37821994423170985,-0.20868436027453122,0,0,0,1
2.365067925337341,-0.37821994423170985,-0.20868436027453122,0,0,0,1
-2.2796177746626594,-0.25066528423170986,0.46442011972546876,0,0,0,1
-2.2796177746626594,-0.25066528423170986,0.46442011972546876,0,0,0,1
-3.501480574662659,0.3297278457682901,0.8429634897254689,0,0,0,1
-2.593341774662659,0.6934507157682901,0.7625812197254688,0,0,0,1
-0.2732758346626591,0.9612125157682901,-0.20040336027453123,0,0,0,1
2.3483071253373407,0.5712373157682902,-1.5551381802745312,0,0,0,1
3.7420182253373406,0.13651119576829013,-1.138870880274531,0,0,0,1
0.9516625553373409,0.4917710357682901,-1.605631480274531,0,0,0,1
-0.9928469746626591,-0.14194012423170987,-1.0623611802745312,0,0,0,1
-0.9928469746626591,-0.14194012423170987,-1.0623611802745312,0,0,0,1
-2.426681074662659,-0.35795254423170986,0.10355260972546877,0,0,0,1
-2.426681074662659,-0.35795254423170986,0.10355260972546877,0,0,0,1
-1.015269774662659,0.4024718857682901,1.3588824197254687,0,0,0,1
0.7249512853373409,0.48120259576829016,1.0780892197254688,0,0,0,1
0.7249512853373409,0.48120259576829016,1.0780892197254688,0,0,0,1
1.603757425337341,0.08567767176829014,0.21968491972546877,0,0,0,1
-0.1532835746626591,-1.2290467842317099,-0.9560761802745312,0,0,0,1
-0.1532835746626591,-1.2290467842317099,-0.9560761802745312,0,0,0,1
-1.489449974662659,0.022071750768290127,-0.8119600102745311,0,0,0,1
-1.864452774662659,0.6571688157682901,-0.9619816802745311,0,0,0,1
-1.864452774662659,0.6571688157682901,-0.9619816802745311,0,0,0,1
-1.864452774662659,0.6571688157682901,-0.9619816802745311,0,0,0,1
0.8856148853373409,-0.5701746142317099,-0.4594705402745312,0,0,0,1
0.8856148853373409,-0.5701746142317099,-0.4594705402745312,0,0,0,1
-1.069301074662659,-0.8399346242317098,0.13135888972546877,0,0,0,1
-1.069301074662659,-0.8399346242317098,0.13135888972546877,0,0,0,1
-1.069301074662659,-0.8399346242317098,0.13135888972546877,0,0,0,1
-1.002653574662659,1.95532011576829,0.28514834972546876,0,0,0,1
-1.002653574662659,1.95532011576829,0.28514834972546876,0,0,0,1
0.038219945337340896,1.92290331576829,0.13896408972546878,0,0,0,1
1.578860725337341,-1.14241428423171,-1.2271288802745313,0,0,0,1
0.18811942533734088,-1.74896998423171,-1.1385762802745312,0,0,0,1
0.18811942533734088,-1.74896998423171,-1.1385762802745312,0,0,0,1
0.18811942533734088,-1.74896998423171,-1.1385762802745312,0,0,0,1
-0.8766178746626591,-1.0648233842317099,-0.4555507002745312,0,0,0,1
-1.662273874662659,0.5619365157682902,0.7017565197254688,0,0,0,1
-1.662273874662659,0.5619365157682902,0.7017565197254688,0,0,0,1
-2.336334274662659,1.56337421576829,0.8064700697254689,0,0,0,1
-2.336334274662659,1.56337421576829,0.8064700697254689,0,0,0,1
1.425826525337341,-1.75912728423171,-0.3419593802745312,0,0,0,1
0.9546475553373409,-1.1293644842317099,-1.1951953802745312,0,0,0,1
0.9546475553373409,-1.1293644842317099,-1.1951953802745312,0,0,0,1
0.9546475553373409,-1.1293644842317099,-1.1951953802745312,0,0,0,1
1.176924225337341,-0.07609636023170988,-1.0944519802745312,0,0,0,1
-1.694149474662659,1.89061731576829,-0.5619342802745312,0,0,0,1
-1.694149474662659,1.89061731576829,-0.5619342802745312,0,0,0,1
-2.1206330746626594,1.04407911576829,0.010833351725468773,0,0,0,1
-0.3117594546626591,-0.7856998242317098,-0.08495322027453123,0,0,0,1
0.6082892553373409,-1.39139428423171,-0.42907420027453125,0,0,0,1
-0.09870861466265911,-0.9141572542317099,-0.6095091402745312,0,0,0,1
-0.2853264746626591,-0.5935861842317098,0.08391102972546877,0,0,0,1
0.1142258803373409,0.29323436576829015,0.5717593697254688,0,0,0,1
0.1142258803373409,0.29323436576829015,0.5717593697254688,0,0,0,1
0.1142258803373409,0.29323436576829015,0.5717593697254688,0,0,0,1
-0.5216889246626591,0.8627325457682902,0.4800835497254688,0,0,0,1
-0.5929159746626591,0.8104123657682901,-0.4350358602745312,0,0,0,1
0.5720010253373409,-1.0917695842317099,-0.8735370802745311,0,0,0,1
-0.4472126746626591,-1.63214618423171,-0.6671791402745312,0,0,0,1
-0.6155371746626591,-1.00430658423171,-0.6212141802745311,0,0,0,1
0.023776547337340897,0.2338525257682901,-0.17949048027453124,0,0,0,1
-0.3028578646626591,1.48057101576829,0.04162427672546878,0,0,0,1
-0.3028578646626591,1.48057101576829,0.04162427672546878,0,0,0,1
-0.013960345662659107,0.33911319576829013,-0.3290268502745312,0,0,0,1
-0.013960345662659107,0.33911319576829013,-0.3290268502745312,0,0,0,1
-0.2924227546626591,-0.2753856042317099,-0.4438538802745312,0,0,0,1
0.3726258453373409,-0.39737443423170987,-0.6169458802745311,0,0,0,1
0.6000189953373409,-0.35084415423170984,0.033064572725468776,0,0,0,1
-0.2124209246626591,0.46564175576829014,-0.32306305027453125,0,0,0,1
-0.9584698746626591,0.6082545657682902,0.18187149972546876,0,0,0,1
-0.5490345746626591,-0.42670748423170984,0.4824134397254688,0,0,0,1
-0.8740839746626591,-1.16493798423171,-0.0014391258745312255,0,0,0,1
-0.8740839746626591,-1.16493798423171,-0.0014391258745312255,0,0,0,1
0.6418585953373409,-0.9864424242317098,-0.4301035802745312,0,0,0,1
2.0050425253373407,-0.5504306342317099,-0.6607862802745311,0,0,0,1
0.8148865853373409,0.34352313576829013,-1.0276678802745312,0,0,0,1
0.8148865853373409,0.34352313576829013,-1.0276678802745312,0,0,0,1
-0.3694023946626591,1.37627601576829,0.48645129972546874,0,0,0,1
0.3083768053373409,1.17278341576829,-0.024332554274531227,0,0,0,1
1.178006625337341,-0.7699519242317099,-0.6228338802745311,0,0,0,1
0.9285578853373408,-2.2256488842317097,-0.9845922302745311,0,0,0,1
-1.280523774662659,-1.6544501842317099,-0.9495278802745312,0,0,0,1
-1.280523774662659,-1.6544501842317099,-0.9495278802745312,0,0,0,1
-2.7557124746626593,-0.37783066423170986,0.016336767725468774,0,0,0,1
-2.7557124746626593,-0.37783066423170986,0.016336767725468774,0,0,0,1
-1.862790574662659,0.7573710157682901,0.9820188597254689,0,0,0,1
2.092746225337341,1.49758101576829,-0.11875680027453123,0,0,0,1
2.092746225337341,1.49758101576829,-0.11875680027453123,0,0,0,1
2.1849360253373407,1.5448425157682901,-0.9067648802745312,0,0,0,1
-0.2603955146626591,0.9331444157682901,-0.6107996802745311,0,0,0,1
-0.2603955146626591,0.9331444157682901,-0.6107996802745311,0,0,0,1
-2.741614274662659,0.4091746157682901,0.28973158972546875,0,0,0,1
-2.741614274662659,0.4091746157682901,0.28973158972546875,0,0,0,1
2.4997363253373406,-1.26923858423171,-0.006663115374531225,0,0,0,1
2.4997363253373406,-1.26923858423171,-0.006663115374531225,0,0,0,1
2.6090350253373407,-1.49758668423171,0.5476197897254689,0,0,0,1
1.114539625337341,-1.3231671842317099,0.8959445597254688,0,0,0,1
-3.2456225746626592,-0.4254759342317099,0.5572328897254688,0,0,0,1
-3.2456225746626592,-0.4254759342317099,0.5572328897254688,0,0,0,1
-0.36513279466265913,-1.69136008423171,0.7544610197254689,0,0,0,1
-0.36513279466265913,-1.69136008423171,0.7544610197254689,0,0,0,1
-0.36513279466265913,-1.69136008423171,0.7544610197254689,0,0,0,1
1.604331525337341,-0.20401197423170989,0.6824093697254688,0,0,0,1
