acc_x,acc_y,acc_z,gyro_x,gyro_y,gyro_z,label
2.539732425337341,0.42054929576829014,-0.8159654502745312,0,0,0,1
2.539732425337341,0.42054929576829014,-0.8159654502745312,0,0,0,1
0.3756127553373409,-0.3681287542317099,0.017981855725468773,0,0,0,1
0.07830573533734089,-0.11074088423170987,1.1452505197254688,0,0,0,1
0.3847699253373409,0.4266876157682901,1.2142667197254688,0,0,0,1
0.4495186953373409,0.9467058157682902,0.7268377197254688,0,0,0,1
1.506460725337341,0.23394872576829012,0.34005954972546876,0,0,0,1
0.4770884653373409,-0.6077115342317099,-0.45490858027453124,0,0,0,1
0.4770884653373409,-0.6077115342317099,-0.45490858027453124,0,0,0,1
-0.6576733446626591,0.9314226157682901,0.13226958972546876,0,0,0,1
-0.6576733446626591,0.9314226157682901,0.13226958972546876,0,0,0,1
2.058253725337341,0.5945767157682902,0.5014270797254688,0,0,0,1
2.763159325337341,-0.28067634423170984,0.3941342497254688,0,0,0,1
2.794133725337341,-0.7156173842317098,0.09170469472546877,0,0,0,1
2.794133725337341,-0.7156173842317098,0.09170469472546877,0,0,0,1
0.6527543253373409,-0.5476052842317098,0.4244633597254688,0,0,0,1
-1.046062974662659,0.3996273457682901,0.6638721197254688,0,0,0,1
-1.046062974662659,0.3996273457682901,0.6638721197254688,0,0,0,1
-1.748068774662659,0.19207241576829012,0.3184349197254688,0,0,0,1
0.6936078253373409,-0.8192054842317098,0.16404511972546876,0,0,0,1
0.6936078253373409,-0.8192054842317098,0.16404511972546876,0,0,0,1
2.6732717253373406,-1.24494858423171,-0.034538300274531225,0,0,0,1
2.537765025337341,-0.4772713042317099,0.3786789497254688,0,0,0,1
1.662547625337341,0.29500414576829015,0.5888834897254688,0,0,0,1
-0.1827692846626591,0.7365327157682902,0.6320826197254689,0,0,0,1
-1.543718774662659,0.5413365557682901,0.42927893972546877,0,0,0,1
-0.8188366746626591,-1.3130831842317099,0.31769431972546874,0,0,0,1
-0.4923119346626591,-0.6365639842317099,0.08199431972546876,0,0,0,1
-0.4923119346626591,-0.6365639842317099,0.08199431972546876,0,0,0,1
0.8911175853373409,0.1608789157682901,0.7343836197254688,0,0,0,1
0.8911175853373409,0.1608789157682901,0.7343836197254688,0,0,0,1
0.6585278653373409,0.5010857757682902,0.9010643597254688,0,0,0,1
-0.3066820946626591,0.05637242276829013,0.6700122597254689,0,0,0,1
-0.46843384466265914,0.6931323157682902,0.2887595897254688,0,0,0,1
0.6576943553373409,1.51882291576829,-0.47855255027453125,0,0,0,1
2.293168525337341,0.5253913557682901,-0.21615568027453122,0,0,0,1
0.0525469953373409,0.24726797576829013,1.0151344197254688,0,0,0,1
0.0525469953373409,0.24726797576829013,1.0151344197254688,0,0,0,1
0.0525469953373409,0.24726797576829013,1.0151344197254688,0,0,0,1
0.09224654533734089,2.35979461576829,0.9667982697254688,0,0,0,1
1.011217625337341,1.01669281576829,0.25544973972546875,0,0,0,1
-0.3582701546626591,0.8682202157682901,-0.013538511274531225,0,0,0,1
-1.911128074662659,1.31839201576829,-0.2661834802745312,0,0,0,1
1.092775825337341,0.6621294157682901,0.21405475972546878,0,0,0,1
1.077182325337341,0.8061353157682901,-0.05089822527453122,0,0,0,1
1.201758925337341,0.8989940157682902,0.21555873972546877,0,0,0,1
1.201758925337341,0.8989940157682902,0.21555873972546877,0,0,0,1
-0.8501000246626591,0.9997915157682902,-0.05792007027453122,0,0,0,1
-1.012035874662659,0.47722211576829016,-0.19219640027453122,0,0,0,1
-1.012035874662659,0.47722211576829016,-0.19219640027453122,0,0,0,1
-0.17005012466265912,0.00973965576829013,-0.10340491027453123,0,0,0,1
1.406039725337341,0.06352545576829012,0.030398575725468776,0,0,0,1
1.406039725337341,0.06352545576829012,0.030398575725468776,0,0,0,1
0.034300343337340895,-0.7781505442317098,-0.06971773627453122,0,0,0,1
0.034300343337340895,-0.7781505442317098,-0.06971773627453122,0,0,0,1
1.611264725337341,-1.74766328423171,0.41638323972546876,0,0,0,1
-0.20912311466265912,0.012103814768290129,0.6406569197254688,0,0,0,1
-0.09153412466265912,-0.7861320842317099,0.7098053197254688,0,0,0,1
0.2029471553373409,-0.8981702142317098,0.29800524972546877,0,0,0,1
2.0253291253373407,0.4997164157682901,0.21101143972546876,0,0,0,1
1.634607825337341,0.6295376157682901,0.04505136472546878,0,0,0,1
1.634607825337341,0.6295376157682901,0.04505136472546878,0,0,0,1
0.32216788533734086,0.06602694576829013,0.15212961972546876,0,0,0,1
0.07263614533734089,0.2744680857682901,0.5269332197254688,0,0,0,1
-0.0919289446626591,0.8527863157682901,0.4867742597254688,0,0,0,1
0.048699872337340896,0.7489577757682901,0.5523769497254688,0,0,0,1
0.7073235653373409,-0.5733117842317098,0.7186871197254688,0,0,0,1
-0.8886971346626591,0.27396716576829017,0.3655990897254688,0,0,0,1
-0.8886971346626591,0.27396716576829017,0.3655990897254688,0,0,0,1
0.3866067053373409,0.6481166157682902,0.44481723972546877,0,0,0,1
-0.2364306246626591,0.5866827157682901,-0.06495246427453123,0,0,0,1
2.066599425337341,-1.07289768423171,0.14402904972546876,0,0,0,1
2.066599425337341,-1.07289768423171,0.14402904972546876,0,0,0,1
1.114079925337341,-0.6372215842317098,0.11722078972546877,0,0,0,1
-0.2522263346626591,0.20396353576829013,0.9681046897254688,0,0,0,1
-0.008963091962659105,0.1709821357682901,0.3970685597254688,0,0,0,1
-0.008963091962659105,0.1709821357682901,0.3970685597254688,0,0,0,1
1.265443325337341,0.09718634576829013,0.7070109497254689,0,0,0,1
1.197399625337341,0.5232831157682901,0.42730881972546875,0,0,0,1
0.4476027653373409,0.6832244557682902,0.09670784972546877,0,0,0,1
0.7852130253373409,-0.11596749423170986,0.16904302972546878,0,0,0,1
0.7852130253373409,-0.11596749423170986,0.16904302972546878,0,0,0,1
0.3874735953373409,1.07253981576829,0.48980497972546877,0,0,0,1
0.3874735953373409,1.07253981576829,0.48980497972546877,0,0,0,1
1.102184825337341,1.40117101576829,0.6041477597254689,0,0,0,1
-0.3861574946626591,0.45070208576829013,0.2579018197254688,0,0,0,1
-0.8117537346626591,-0.2188403442317099,0.22774394972546877,0,0,0,1
-0.08175895966265911,-0.10656021423170987,0.23163249972546876,0,0,0,1
0.4087796253373409,0.38509013576829015,0.19167604972546878,0,0,0,1
0.3624854253373409,0.5435780457682902,0.12078168972546877,0,0,0,1
0.4868226253373409,0.3942797357682901,0.22876658972546876,0,0,0,1
0.6412301253373409,0.20651306576829012,0.5075890697254688,0,0,0,1
0.5394664253373409,0.20214905576829012,0.3800837997254688,0,0,0,1
0.4734072853373409,0.3992119157682901,0.33793016972546874,0,0,0,1
0.4734072853373409,0.3992119157682901,0.33793016972546874,0,0,0,1
0.5785660953373409,0.6046977157682901,0.07691040472546877,0,0,0,1
0.3998866253373409,0.34904577576829016,0.09179558972546877,0,0,0,1
-0.5520109746626591,1.53088191576829,0.6351338197254688,0,0,0,1
-0.5520109746626591,1.53088191576829,0.6351338197254688,0,0,0,1
-0.5520109746626591,1.53088191576829,0.6351338197254688,0,0,0,1
0.3308348853373409,0.9158288157682901,0.7152279197254688,0,0,0,1
1.058232825337341,0.09554626576829013,0.4631344697254688,0,0,0,1
0.9650187653373409,-0.20112345423170988,0.08944841972546877,0,0,0,1
0.9650187653373409,-0.20112345423170988,0.08944841972546877,0,0,0,1
0.9650187653373409,-0.20112345423170988,0.08944841972546877,0,0,0,1
0.2009587453373409,0.40432991576829014,0.010541467725468774,0,0,0,1
-0.3360562146626591,0.32201221576829014,0.08314027972546877,0,0,0,1
-0.6902813746626592,0.5594258457682901,0.09841963472546877,0,0,0,1
-0.0495171386626591,0.47379221576829017,0.33844974972546876,0,0,0,1
0.6611438253373408,0.43536223576829014,0.38458491972546877,0,0,0,1
0.7014041253373409,0.30051805576829016,0.2967257197254688,0,0,0,1
0.9416222753373409,-0.17549918423170988,0.4312917597254688,0,0,0,1
0.9416222753373409,-0.17549918423170988,0.4312917597254688,0,0,0,1
-0.6934151746626591,0.8667944857682901,0.4534664397254688,0,0,0,1
-0.35997627466265913,1.01742981576829,0.2785310397254688,0,0,0,1
1.424121425337341,0.6659988157682901,-0.014832945274531224,0,0,0,1
1.424121425337341,0.6659988157682901,-0.014832945274531224,0,0,0,1
-0.0030665236626591054,0.8601993457682902,0.12644895972546877,0,0,0,1
-0.1351885646626591,1.3055666157682901,0.47304793972546877,0,0,0,1
-0.3539528746626591,1.8987104157682901,0.6872632797254689,0,0,0,1
0.36865952533734087,2.02197121576829,0.5927200197254688,0,0,0,1
1.634624925337341,1.58436691576829,0.6751057197254688,0,0,0,1
-0.015854342662659105,0.8992795157682901,0.037949113725468775,0,0,0,1
-0.015854342662659105,0.8992795157682901,0.037949113725468775,0,0,0,1
-0.6611285046626592,1.4895511157682901,-0.015474767974531225,0,0,0,1
-0.2694525546626591,1.6301742157682901,-0.044858308274531224,0,0,0,1
0.1523795253373409,0.7800523157682901,0.5222249197254688,0,0,0,1
0.1523795253373409,0.7800523157682901,0.5222249197254688,0,0,0,1
0.5990166853373409,0.8037815157682902,0.8132455597254689,0,0,0,1
0.5990166853373409,0.8037815157682902,0.8132455597254689,0,0,0,1
-0.3315710746626591,1.41133421576829,0.23779770972546876,0,0,0,1
0.8444638253373409,0.6040544657682901,0.030466049725468774,0,0,0,1
0.8444638253373409,0.6040544657682901,0.030466049725468774,0,0,0,1
0.2752833553373409,1.24203611576829,-0.22009745027453123,0,0,0,1
0.4649882453373409,1.43425621576829,-0.13974050027453122,0,0,0,1
1.176170825337341,1.17884371576829,-0.05499771427453122,0,0,0,1
-0.012737734662659105,0.7545548157682902,-0.025868983274531226,0,0,0,1
0.21294070533734089,0.7564136157682901,0.6569809597254688,0,0,0,1
0.10679485033734089,1.35162061576829,0.7659013197254688,0,0,0,1
0.10679485033734089,1.35162061576829,0.7659013197254688,0,0,0,1
0.5391192553373408,0.7954506457682902,0.42358624972546877,0,0,0,1
0.3754849553373409,0.24561251576829013,0.044613209725468776,0,0,0,1
-0.1830572946626591,0.7616431157682901,-0.13952223027453123,0,0,0,1
-0.1830572946626591,0.7616431157682901,-0.13952223027453123,0,0,0,1
-0.2015976746626591,1.38378121576829,0.17471935972546876,0,0,0,1
-0.08685825466265912,0.9453819157682901,0.4631899597254688,0,0,0,1
0.9772114953373409,0.1683261557682901,0.7178317197254688,0,0,0,1
0.9772114953373409,0.1683261557682901,0.7178317197254688,0,0,0,1
0.31267692533734087,0.5015506957682901,0.28968431972546876,0,0,0,1
-0.4975981546626591,0.29754759576829015,-0.12233528627453123,0,0,0,1
-0.4975981546626591,0.29754759576829015,-0.12233528627453123,0,0,0,1
1.492544725337341,0.8531236157682901,-0.12129191027453123,0,0,0,1
1.492544725337341,0.8531236157682901,-0.12129191027453123,0,0,0,1
1.492544725337341,0.8531236157682901,-0.12129191027453123,0,0,0,1
-1.365822274662659,0.2004146757682901,0.32101055972546877,0,0,0,1
-1.365822274662659,0.2004146757682901,0.32101055972546877,0,0,0,1
-1.658000474662659,0.1414371957682901,0.37443411972546875,0,0,0,1
-0.8167366746626591,0.40397437576829015,0.19940021972546876,0,0,0,1
-0.8167366746626591,0.40397437576829015,0.19940021972546876,0,0,0,1
1.888451125337341,0.5872065157682902,-0.15829358027453122,0,0,0,1
0.25906230533734087,-0.17614434423170988,-0.4210849102745312,0,0,0,1
-0.8300671446626591,-0.0002952630317098713,-0.23467896027453122,0,0,0,1
-0.8300671446626591,-0.0002952630317098713,-0.23467896027453122,0,0,0,1
-1.605255574662659,1.01757181576829,0.04941126572546878,0,0,0,1
-0.4603676746626591,2.0846932157682905,0.6598698797254688,0,0,0,1
-0.4603676746626591,2.0846932157682905,0.6598698797254688,0,0,0,1
0.8393159253373409,1.35039601576829,0.6302071497254689,0,0,0,1
1.166724725337341,0.47176017576829016,0.27658804972546874,0,0,0,1
0.8127942253373409,-0.2004670842317099,0.0013224167254687743,0,0,0,1
-0.11521385466265911,0.46820921576829017,0.09252157972546877,0,0,0,1
-0.11521385466265911,0.46820921576829017,0.09252157972546877,0,0,0,1
-0.7473416146626591,1.14858931576829,0.2535207597254688,0,0,0,1
0.5683884753373409,0.9628474157682901,0.21046634972546877,0,0,0,1
0.5683884753373409,0.9628474157682901,0.21046634972546877,0,0,0,1
0.5683884753373409,0.9628474157682901,0.21046634972546877,0,0,0,1
0.5683884753373409,0.9628474157682901,0.21046634972546877,0,0,0,1
