acc_x,acc_y,acc_z,gyro_x,gyro_y,gyro_z,label
0.5288815653373409,-1.31026908423171,-0.5916583802745312,0,0,0,1
-0.33466099466265914,-0.15524650423170988,-0.41084066027453126,0,0,0,1
-0.4422964746626591,1.07029311576829,-0.5520757802745312,0,0,0,1
-0.2515072646626591,-0.011976343231709872,-0.27097978027453123,0,0,0,1
-0.2515072646626591,-0.011976343231709872,-0.27097978027453123,0,0,0,1
0.1258292353373409,-1.59446238423171,-0.7849662802745312,0,0,0,1
1.272017025337341,-0.8143866842317099,-0.6980449302745312,0,0,0,1
1.272017025337341,-0.8143866842317099,-0.6980449302745312,0,0,0,1
-0.1700901846626591,-0.7786084242317098,0.06554933972546877,0,0,0,1
-0.8613695746626591,1.78478491576829,0.7561234497254689,0,0,0,1
-0.8613695746626591,1.78478491576829,0.7561234497254689,0,0,0,1
0.3115763853373409,1.17633211576829,0.6587806597254688,0,0,0,1
-0.16647861466265912,-1.11179378423171,-0.7607676102745312,0,0,0,1
-0.16647861466265912,-1.11179378423171,-0.7607676102745312,0,0,0,1
0.4502272753373409,-0.8254952842317098,-0.6639321802745312,0,0,0,1
-1.188490374662659,0.8947027557682902,-0.49030814027453123,0,0,0,1
-1.188490374662659,0.8947027557682902,-0.49030814027453123,0,0,0,1
0.3610644453373409,1.5673471157682901,-0.05046651027453122,0,0,0,1
1.120980725337341,0.07236723576829013,-0.26863226027453124,0,0,0,1
1.120980725337341,0.07236723576829013,-0.26863226027453124,0,0,0,1
0.5069489653373409,-1.58511288423171,-0.5343985802745311,0,0,0,1
0.5905728253373409,-1.73922458423171,-0.4003244902745312,0,0,0,1
-0.28810070466265914,0.9840308157682901,0.5583867197254688,0,0,0,1
-1.786141874662659,1.24051961576829,0.7097989197254688,0,0,0,1
-1.786141874662659,1.24051961576829,0.7097989197254688,0,0,0,1
-1.396161574662659,0.8875756157682901,0.2885976697254688,0,0,0,1
0.1286616453373409,-0.3811153842317099,0.054125515725468774,0,0,0,1
0.5864892253373409,-1.29270148423171,-0.15855160027453122,0,0,0,1
0.49742938533734093,-0.6260721542317098,-0.4381367302745312,0,0,0,1
1.048594025337341,0.22934176576829013,-0.21928170027453123,0,0,0,1
1.465231425337341,0.5034813457682902,-0.5018542102745313,0,0,0,1
1.465231425337341,0.5034813457682902,-0.5018542102745313,0,0,0,1
-2.028942574662659,-1.00572648423171,0.5128747197254688,0,0,0,1
-2.028942574662659,-1.00572648423171,0.5128747197254688,0,0,0,1
-2.028942574662659,-1.00572648423171,0.5128747197254688,0,0,0,1
1.961649425337341,0.5533308557682901,0.11089243972546876,0,0,0,1
2.909099125337341,0.5227662157682902,-0.08348563427453123,0,0,0,1
-1.499528374662659,0.43643291576829013,-0.3614666802745312,0,0,0,1
-1.499528374662659,0.43643291576829013,-0.3614666802745312,0,0,0,1
-1.873150774662659,0.8357119157682902,-0.6914912802745312,0,0,0,1
-1.873150774662659,0.8357119157682902,-0.6914912802745312,0,0,0,1
-0.33437487466265914,-0.9133011842317098,-0.35863581027453123,0,0,0,1
1.369638925337341,-0.39768718423170984,0.6457464197254689,0,0,0,1
1.369638925337341,-0.39768718423170984,0.6457464197254689,0,0,0,1
1.369638925337341,-0.39768718423170984,0.6457464197254689,0,0,0,1
0.3319382853373409,0.0010301355682901287,0.4203401497254688,0,0,0,1
0.3319382853373409,0.0010301355682901287,0.4203401497254688,0,0,0,1
-0.1693091246626591,0.28729097576829016,-0.6250031302745311,0,0,0,1
-0.1693091246626591,0.28729097576829016,-0.6250031302745311,0,0,0,1
-0.1693091246626591,0.28729097576829016,-0.6250031302745311,0,0,0,1
-1.206754174662659,-1.7435593842317099,-0.7654279802745312,0,0,0,1
-1.206754174662659,-1.7435593842317099,-0.7654279802745312,0,0,0,1
-0.1532931146626591,-0.31918556423170985,-0.46360948027453125,0,0,0,1
2.551418725337341,1.6075745157682901,-0.10786834527453124,0,0,0,1
1.801812625337341,0.7800706857682902,-0.4269208002745312,0,0,0,1
0.6555056753373409,-1.24931158423171,-0.19873980027453123,0,0,0,1
0.6555056753373409,-1.24931158423171,-0.19873980027453123,0,0,0,1
-2.840949974662659,-0.2827584242317099,0.28913136972546877,0,0,0,1
-2.840949974662659,-0.2827584242317099,0.28913136972546877,0,0,0,1
-2.840949974662659,-0.2827584242317099,0.28913136972546877,0,0,0,1
0.3806004653373409,0.9906917157682902,0.8702086197254688,0,0,0,1
2.019564125337341,0.49874176576829016,-1.4828925802745312,0,0,0,1
2.019564125337341,0.49874176576829016,-1.4828925802745312,0,0,0,1
2.019564125337341,0.49874176576829016,-1.4828925802745312,0,0,0,1
1.411284025337341,-1.10608968423171,-1.6166806802745313,0,0,0,1
-2.0643562746626594,1.03807691576829,0.5965963197254688,0,0,0,1
2.325813725337341,1.16723281576829,0.7913268197254688,0,0,0,1
2.325813725337341,1.16723281576829,0.7913268197254688,0,0,0,1
1.100682725337341,-1.41575238423171,0.45572307972546877,0,0,0,1
-1.801233774662659,-0.45393218423170983,0.38126011972546875,0,0,0,1
1.541544425337341,0.2384819257682901,-0.9210381802745312,0,0,0,1
1.541544425337341,0.2384819257682901,-0.9210381802745312,0,0,0,1
0.5977940753373409,-0.7436101242317098,-0.6338298802745311,0,0,0,1
-0.09983490466265911,-0.2311633042317099,-0.15947166027453122,0,0,0,1
-0.7546372246626591,0.34666054576829014,0.22347089972546877,0,0,0,1
-0.5037226546626591,0.34268875576829017,0.6997638597254688,0,0,0,1
-0.5037226546626591,0.34268875576829017,0.6997638597254688,0,0,0,1
1.172741425337341,0.32679645576829014,0.6740249697254689,0,0,0,1
1.510228625337341,0.8323389457682902,-0.06013337027453122,0,0,0,1
0.2765622253373409,0.4523134757682901,-0.8414632402745311,0,0,0,1
-1.193453274662659,-1.24976108423171,-0.7878438802745312,0,0,0,1
-0.9497360746626591,0.8760667157682901,-0.5508990802745312,0,0,0,1
-0.9497360746626591,0.8760667157682901,-0.5508990802745312,0,0,0,1
0.2930874953373409,2.0940394157682904,-0.47983006027453123,0,0,0,1
1.714403625337341,0.9827293157682901,-0.4620898102745312,0,0,0,1
-1.804205374662659,-0.6246105242317098,0.24816621972546876,0,0,0,1
-1.804205374662659,-0.6246105242317098,0.24816621972546876,0,0,0,1
-1.804205374662659,-0.6246105242317098,0.24816621972546876,0,0,0,1
0.4046864653373409,1.12372341576829,0.5480506197254689,0,0,0,1
0.8166318253373409,-1.04374428423171,0.06062826372546878,0,0,0,1
0.053698079337340894,-0.9185607242317099,-0.003603608974531225,0,0,0,1
-0.8593983746626591,0.39116491576829016,-0.11347619027453124,0,0,0,1
-0.34283302466265914,1.07126571576829,-0.5266385402745312,0,0,0,1
0.5472274253373409,-0.04490215723170987,-0.29551271027453124,0,0,0,1
0.057079808337340894,-0.49326292423170987,-0.6461972302745311,0,0,0,1
-0.5099730346626591,-0.011003416231709872,-0.21394912027453122,0,0,0,1
0.8201708953373409,0.43380051576829015,-0.09625855027453123,0,0,0,1
0.8201708953373409,0.43380051576829015,-0.09625855027453123,0,0,0,1
0.2531390253373409,0.14176838576829012,-0.07383576027453123,0,0,0,1
0.0858330853373409,-0.39234460423170986,0.46828904972546875,0,0,0,1
0.0858330853373409,-0.39234460423170986,0.46828904972546875,0,0,0,1
0.0858330853373409,-0.39234460423170986,0.46828904972546875,0,0,0,1
0.0858330853373409,-0.39234460423170986,0.46828904972546875,0,0,0,1
1.168572925337341,1.7525984157682901,0.025925247725468777,0,0,0,1
0.3496079653373409,-0.38918148423170984,-0.5962410302745311,0,0,0,1
0.3496079653373409,-0.38918148423170984,-0.5962410302745311,0,0,0,1
-1.080054774662659,0.07639722576829013,-0.8818389502745312,0,0,0,1
-1.080054774662659,0.07639722576829013,-0.8818389502745312,0,0,0,1
0.0705752553373409,0.20450161576829012,-0.8077059102745312,0,0,0,1
-0.8815159746626591,-0.6421157842317099,-0.7358640802745312,0,0,0,1
-0.8815159746626591,-0.6421157842317099,-0.7358640802745312,0,0,0,1
-0.8977131746626591,-1.79556068423171,-0.030276568274531228,0,0,0,1
-0.8977131746626591,-1.79556068423171,-0.030276568274531228,0,0,0,1
0.8612160853373408,-1.42480678423171,0.28439441972546875,0,0,0,1
1.041112425337341,1.04650891576829,0.18714221972546877,0,0,0,1
1.041112425337341,1.04650891576829,0.18714221972546877,0,0,0,1
0.8556094253373409,-0.41916278423170983,-0.2513754702745312,0,0,0,1
0.0498576323373409,1.68999061576829,-1.0119950802745312,0,0,0,1
0.0498576323373409,1.68999061576829,-1.0119950802745312,0,0,0,1
-0.6036476746626591,0.08660589576829013,-1.0724216802745312,0,0,0,1
-0.6036476746626591,0.08660589576829013,-1.0724216802745312,0,0,0,1
-0.21404217466265912,-1.30350968423171,-0.3986294602745312,0,0,0,1
0.06836272533734089,0.4861043857682901,0.9428506797254689,0,0,0,1
0.06836272533734089,0.4861043857682901,0.9428506797254689,0,0,0,1
-0.4359516946626591,-0.22677825423170989,1.0511012197254688,0,0,0,1
-0.4717650246626591,-0.5028589842317098,0.7616126197254688,0,0,0,1
-0.4717650246626591,-0.5028589842317098,0.7616126197254688,0,0,0,1
-0.5513148146626591,0.41785125576829013,-0.22965470027453122,0,0,0,1
0.5293231253373409,-0.2419372042317099,-1.1650253802745312,0,0,0,1
0.005300061337340894,0.07536553176829013,-0.5916648202745312,0,0,0,1
-0.3003754446626591,0.9383697657682901,-0.08358791627453123,0,0,0,1
-0.026749117662659104,1.00253501576829,0.42904427972546877,0,0,0,1
-0.026749117662659104,1.00253501576829,0.42904427972546877,0,0,0,1
0.3505416053373409,-0.11796773423170986,0.5785135197254688,0,0,0,1
0.3505416053373409,-0.11796773423170986,0.5785135197254688,0,0,0,1
0.3540301453373409,0.5204102557682901,0.09057160972546877,0,0,0,1
-0.07127044966265911,-0.3382240342317099,-0.5826813302745312,0,0,0,1
-0.2743124746626591,-0.8918733442317098,-0.7771336202745311,0,0,0,1
0.2057480953373409,-0.6376349142317098,-0.7166496802745311,0,0,0,1
1.060374725337341,0.9558489457682902,-0.15763691027453122,0,0,0,1
1.060374725337341,0.9558489457682902,-0.15763691027453122,0,0,0,1
0.14952708533734088,-0.11218474423170988,0.38115318972546874,0,0,0,1
-0.4114823146626591,-0.6454194842317098,0.5445930597254688,0,0,0,1
-0.4114823146626591,-0.6454194842317098,0.5445930597254688,0,0,0,1
0.5450320253373409,0.44298011576829016,0.44923951972546877,0,0,0,1
0.5450320253373409,0.6844230457682902,-0.2992110602745312,0,0,0,1
0.5537629253373408,0.6844230457682902,-0.2992110602745312,0,0,0,1
-0.7491192746626592,0.25844715576829014,-0.6315449802745312,0,0,0,1
0.6585440753373409,-0.17190445423170989,-0.8525048802745312,0,0,0,1
0.6585440753373409,-0.17190445423170989,-0.8525048802745312,0,0,0,1
0.7279420253373409,-0.23152072423170988,-0.5285622202745311,0,0,0,1
-0.1990637646626591,0.19006714576829012,0.4237787997254688,0,0,0,1
-0.1990637646626591,0.19006714576829012,0.4237787997254688,0,0,0,1
-0.5901598746626591,0.6657925157682901,0.6083177597254689,0,0,0,1
0.7362971253373409,-0.32134566423170985,-0.4676661802745312,0,0,0,1
-0.24328373466265912,0.7092938557682902,-0.7064613402745312,0,0,0,1
-0.3923773746626591,0.8816024157682901,-0.23357800027453124,0,0,0,1
-0.1502203746626591,0.7529468757682901,-0.10975519027453123,0,0,0,1
-0.1502203746626591,0.7529468757682901,-0.10975519027453123,0,0,0,1
-1.7701577746626591,0.1526574357682901,0.6172199197254689,0,0,0,1
-1.7701577746626591,0.1526574357682901,0.6172199197254689,0,0,0,1
-1.7701577746626591,0.1526574357682901,0.6172199197254689,0,0,0,1
0.4925151053373409,0.7050663157682902,0.2638296797254688,0,0,0,1
2.031183725337341,0.44220678576829014,-0.7848371802745312,0,0,0,1
2.0316977253373407,0.44262679576829017,-0.7813030802745312,0,0,0,1
-0.7951731746626591,0.21082145576829012,-0.6471849802745312,0,0,0,1
-1.977655874662659,0.6051847157682901,0.20145424972546877,0,0,0,1
-1.977655874662659,0.6051847157682901,0.20145424972546877,0,0,0,1
1.176065925337341,0.27508701576829014,0.2784175597254688,0,0,0,1
1.127184425337341,-0.9415468342317098,0.008590666725468772,0,0,0,1
0.4440741653373409,-2.07829428423171,-0.0013912037745312253,0,0,0,1
-0.4008517146626591,-1.3694325842317099,0.2732902497254688,0,0,0,1
-0.4008517146626591,-1.3694325842317099,0.2732902497254688,0,0,0,1
-1.287424574662659,0.6595478157682901,0.5985713897254689,0,0,0,1
0.012560383337340896,1.60802721576829,0.14644249972546877,0,0,0,1
0.012560383337340896,1.60802721576829,0.14644249972546877,0,0,0,1
0.8292966253373409,-0.9475986842317099,-0.8279806802745312,0,0,0,1
0.8292966253373409,-0.9475986842317099,-0.8279806802745312,0,0,0,1
0.15032817533734089,0.32937129576829016,-0.5470534802745312,0,0,0,1
0.15032817533734089,0.32937129576829016,-0.5470534802745312,0,0,0,1
0.15032817533734089,0.32937129576829016,-0.5470534802745312,0,0,0,1
0.04344512533734089,-0.00819362323170987,0.16744204972546878,0,0,0,1
0.04344512533734089,-0.00819362323170987,0.16744204972546878,0,0,0,1
1.051951925337341,-0.049577784231709866,-0.09930101027453123,0,0,0,1
