acc_x,acc_y,acc_z,gyro_x,gyro_y,gyro_z,label
-2.1151227746626593,-0.07242469423170987,-0.20742348027453122,0,0,0,1
-2.4662885746626593,-1.86107768423171,-0.2573966102745312,0,0,0,1
0.5331196953373409,-1.57204398423171,0.18143423972546877,0,0,0,1
0.5331196953373409,-1.57204398423171,0.18143423972546877,0,0,0,1
1.988119625337341,0.5165746157682901,0.5604272797254688,0,0,0,1
1.434584125337341,0.9863356557682902,0.31671663972546876,0,0,0,1
1.434584125337341,0.9863356557682902,0.31671663972546876,0,0,0,1
0.0031933943373408944,0.8701969557682901,-0.2512240702745312,0,0,0,1
-1.371899074662659,0.9552188657682902,-1.1582114802745311,0,0,0,1
-0.9831747746626591,-0.34819803423170986,-1.2317326802745312,0,0,0,1
-0.8964295246626591,-0.32691062423170986,-0.3382085802745312,0,0,0,1
-0.8964295246626591,-0.32691062423170986,-0.3382085802745312,0,0,0,1
1.604514625337341,0.8440378157682902,0.5829862597254688,0,0,0,1
1.098466425337341,0.40281118576829017,0.41023834972546874,0,0,0,1
1.098466425337341,0.40281118576829017,0.41023834972546874,0,0,0,1
-0.4215931746626591,-0.5002985442317098,0.06991156972546878,0,0,0,1
-1.827269574662659,-0.7998957442317098,-0.06490543627453123,0,0,0,1
-2.468936474662659,-0.7972274242317099,0.08801087572546877,0,0,0,1
-1.381930774662659,-0.12543935423170988,0.08801087572546877,0,0,0,1
0.6861605853373409,0.7905654457682901,0.07524832972546877,0,0,0,1
2.2668672253373408,1.38654411576829,-0.32886438027453124,0,0,0,1
1.657846025337341,0.35630955576829015,-1.4857623802745312,0,0,0,1
-0.056424601662659106,-0.8331522142317098,-1.5657949802745312,0,0,0,1
-0.056424601662659106,-0.8331522142317098,-1.5657949802745312,0,0,0,1
-3.1480879746626593,-0.33633576423170986,0.7362770697254688,0,0,0,1
1.720715025337341,0.48523374576829015,1.1357190197254687,0,0,0,1
3.1902127253373407,1.34778811576829,1.5049023197254687,0,0,0,1
3.1902127253373407,1.34778811576829,1.5049023197254687,0,0,0,1
3.0866370253373407,1.81794511576829,1.5388660197254689,0,0,0,1
2.590625325337341,1.25763331576829,0.6142389197254688,0,0,0,1
-2.2462205746626593,-1.60442468423171,-1.4377030802745312,0,0,0,1
-2.2462205746626593,-1.60442468423171,-1.4377030802745312,0,0,0,1
-0.9783034146626591,-0.4716648842317099,0.4976373197254688,0,0,0,1
0.8152232253373409,1.44153081576829,0.8286065197254688,0,0,0,1
3.014051025337341,2.0063439157682903,1.519310319725469,0,0,0,1
3.2437367253373406,-0.1729343942317099,-0.11704889027453123,0,0,0,1
1.719969325337341,-1.33987808423171,-1.4698171802745312,0,0,0,1
-2.7940764746626594,-0.38096808423170986,-1.4066702802745312,0,0,0,1
-4.653000274662659,2.16782571576829,-0.04996911027453122,0,0,0,1
-3.447961774662659,3.1757453157682902,1.1122059197254688,0,0,0,1
-0.22192428466265912,2.26594831576829,1.0545223197254687,0,0,0,1
3.4287438253373406,-1.72685248423171,-0.5129478302745312,0,0,0,1
3.4287438253373406,-1.72685248423171,-0.5129478302745312,0,0,0,1
2.637769225337341,-2.94745638423171,-0.8420704802745311,0,0,0,1
-1.842263674662659,-1.11700828423171,0.3826150597254688,0,0,0,1
-1.842263674662659,-1.11700828423171,0.3826150597254688,0,0,0,1
-3.5490641746626594,1.18785801576829,0.8236263197254688,0,0,0,1
-2.4283461746626593,2.5861092157682903,1.0123521197254688,0,0,0,1
2.467030025337341,0.2205715957682901,-0.4530858102745312,0,0,0,1
0.5685353253373409,-1.62467458423171,-1.447899480274531,0,0,0,1
0.5685353253373409,-1.62467458423171,-1.447899480274531,0,0,0,1
-1.591286174662659,-0.007325020231709872,-0.4444178802745312,0,0,0,1
-2.5885510746626594,1.69592541576829,0.8676934497254688,0,0,0,1
0.5441022253373409,1.33091911576829,1.0465863197254688,0,0,0,1
2.342867425337341,-0.5225109242317099,0.2784539197254688,0,0,0,1
2.342867425337341,-0.5225109242317099,0.2784539197254688,0,0,0,1
2.342867425337341,-0.5225109242317099,0.2784539197254688,0,0,0,1
0.6444430253373409,-0.22568750423170988,-1.860559480274531,0,0,0,1
-0.2727560746626591,-0.6024425842317098,-1.2671458802745312,0,0,0,1
-0.2727560746626591,-0.6024425842317098,-1.2671458802745312,0,0,0,1
-2.211735674662659,0.1659173257682901,-0.6948979202745311,0,0,0,1
-3.4713592746626594,1.7404410157682901,-0.11837795527453122,0,0,0,1
-1.622992974662659,1.70941521576829,0.4990904597254688,0,0,0,1
1.982315525337341,-0.9190847842317098,0.2964752597254688,0,0,0,1
1.982315525337341,-0.9190847842317098,0.2964752597254688,0,0,0,1
1.794348225337341,-1.76398838423171,-0.05226806027453122,0,0,0,1
1.799369325337341,-1.81036638423171,-0.3361113402745312,0,0,0,1
-0.9441456746626591,0.3477410557682901,0.03280040472546878,0,0,0,1
-3.519422074662659,2.2686622157682903,0.16438444972546878,0,0,0,1
-2.8855704746626594,2.1246512157682904,0.3777436897254688,0,0,0,1
-0.3027872746626591,0.7945411157682901,-0.13748017027453122,0,0,0,1
-0.3027872746626591,0.7945411157682901,-0.13748017027453122,0,0,0,1
2.0799813253373407,-0.5488313242317099,-1.2215573802745312,0,0,0,1
2.774481325337341,-1.03340958423171,-0.7590210802745312,0,0,0,1
-2.9126419746626593,0.6917921157682901,0.28465161972546876,0,0,0,1
-2.9126419746626593,0.6917921157682901,0.28465161972546876,0,0,0,1
-2.9147419746626593,0.6776060657682902,0.27205976972546875,0,0,0,1
-2.026196474662659,1.33205491576829,0.9072948197254688,0,0,0,1
0.10589839533734088,0.9273476757682901,0.23369642972546878,0,0,0,1
0.10589839533734088,0.9273476757682901,0.23369642972546878,0,0,0,1
2.337333225337341,-1.08699078423171,-1.7334640802745311,0,0,0,1
2.337333225337341,-1.08699078423171,-1.7334640802745311,0,0,0,1
-3.3654784746626594,1.49798371576829,-0.9867794802745312,0,0,0,1
-2.739534874662659,1.91766011576829,0.014203278725468775,0,0,0,1
-1.479173174662659,1.1419821157682901,0.3642224997254688,0,0,0,1
2.5600114253373407,-1.72538198423171,-0.09705928027453123,0,0,0,1
2.5600114253373407,-1.72538198423171,-0.09705928027453123,0,0,0,1
3.3784280253373407,-1.19573338423171,0.20182713972546876,0,0,0,1
-1.447341474662659,2.28403691576829,0.9934048197254688,0,0,0,1
-3.1610526746626593,2.1390207157682903,0.21119698972546877,0,0,0,1
-3.873453074662659,0.6565600157682902,-0.7589229802745312,0,0,0,1
-0.6919159746626591,-2.4587990842317096,-1.073375280274531,0,0,0,1
1.636700125337341,-1.03462928423171,-0.8766653802745312,0,0,0,1
1.636700125337341,-1.03462928423171,-0.8766653802745312,0,0,0,1
4.769206725337341,0.25235611576829015,0.4640944897254688,0,0,0,1
3.580688925337341,0.3750665657682901,-0.018546970274531224,0,0,0,1
0.6414180253373409,0.09511974076829013,-1.0901625802745312,0,0,0,1
-1.904437974662659,-0.13448718423170988,-0.033201606274531226,0,0,0,1
-5.455134874662659,2.27084041576829,0.14430435972546876,0,0,0,1
-5.455134874662659,2.27084041576829,0.14430435972546876,0,0,0,1
-3.293998274662659,1.54911761576829,0.2989658997254688,0,0,0,1
-3.293998274662659,1.54911761576829,0.2989658997254688,0,0,0,1
4.012669125337341,-1.10640558423171,-0.7015427802745312,0,0,0,1
4.015791425337341,-1.09807878423171,-0.6819273802745311,0,0,0,1
1.675786525337341,1.13509811576829,-0.21006623027453122,0,0,0,1
1.675786525337341,1.13509811576829,-0.21006623027453122,0,0,0,1
-2.602215274662659,1.2777153157682901,0.12113162972546876,0,0,0,1
-1.783694274662659,0.06237804576829013,-0.2754484802745312,0,0,0,1
-0.026795847662659106,-1.37678538423171,-0.6422965802745312,0,0,0,1
1.203603325337341,-1.06149268423171,-0.6431892202745312,0,0,0,1
1.183966225337341,-0.2334110842317099,0.34853395972546874,0,0,0,1
0.2953171853373409,0.7665875157682901,0.6299215797254688,0,0,0,1
-0.9484810746626591,0.10509051576829014,0.7434065597254689,0,0,0,1
-0.6423325346626592,-1.2106991842317099,0.23298867972546877,0,0,0,1
0.7945895253373408,-1.84275588423171,-0.22125855027453123,0,0,0,1
0.9988141253373409,-0.6011589842317099,-0.6263116802745312,0,0,0,1
0.9988141253373409,-0.6011589842317099,-0.6263116802745312,0,0,0,1
0.2510628853373409,2.6974738157682903,-0.35827044027453125,0,0,0,1
1.019382025337341,1.91069091576829,-0.5937626802745312,0,0,0,1
0.8542771253373409,-0.12653095423170987,-0.8523136802745311,0,0,0,1
0.8542771253373409,-0.12653095423170987,-0.8523136802745311,0,0,0,1
0.1710076453373409,-2.95001008423171,-0.38646141027453124,0,0,0,1
0.1710076453373409,-2.95001008423171,-0.38646141027453124,0,0,0,1
-0.6297220746626591,-1.71627528423171,0.32863386972546876,0,0,0,1
-0.6297220746626591,-1.71627528423171,0.32863386972546876,0,0,0,1
1.672658425337341,0.5281327157682901,-0.17626038027453123,0,0,0,1
0.7854771753373408,-0.03582162823170987,-1.469275380274531,0,0,0,1
0.7854771753373408,-0.03582162823170987,-1.469275380274531,0,0,0,1
-1.337131974662659,-0.05140557423170987,0.03933652972546878,0,0,0,1
-0.11424110466265912,-1.50892508423171,0.3134685397254688,0,0,0,1
0.9565797253373409,-1.46551658423171,0.3551759397254688,0,0,0,1
0.9565797253373409,-1.46551658423171,0.3551759397254688,0,0,0,1
-1.082935774662659,1.47961191576829,0.19319435972546878,0,0,0,1
-1.082935774662659,1.47961191576829,0.19319435972546878,0,0,0,1
0.1821084253373409,-1.30636678423171,-1.893256080274531,0,0,0,1
1.149347825337341,-1.11288638423171,-2.4703486802745314,0,0,0,1
1.993592725337341,-0.26566646423170986,-1.3714480802745312,0,0,0,1
0.4787116253373409,0.10565252576829014,-0.32830384027453124,0,0,0,1
0.4787116253373409,0.10565252576829014,-0.32830384027453124,0,0,0,1
-1.418468974662659,0.6175122157682902,0.4727670797254688,0,0,0,1
-1.418468974662659,0.6175122157682902,0.4727670797254688,0,0,0,1
0.2507672453373409,-0.04975546423170987,0.7113619697254688,0,0,0,1
0.2507672453373409,-0.04975546423170987,0.7113619697254688,0,0,0,1
-1.037478874662659,1.3750588157682901,0.20665177972546878,0,0,0,1
-0.9026341246626591,1.03338611576829,0.5661642797254688,0,0,0,1
-0.39979599466265914,-0.37636118423170983,-0.2550369802745312,0,0,0,1
-0.39979599466265914,-0.37636118423170983,-0.2550369802745312,0,0,0,1
-0.39979599466265914,-0.37636118423170983,-0.2550369802745312,0,0,0,1
2.2158761253373407,-0.35189310423170983,-0.5601374202745312,0,0,0,1
2.2158761253373407,-0.35189310423170983,-0.5601374202745312,0,0,0,1
0.14305259533734088,1.17006481576829,0.20266481972546876,0,0,0,1
-1.203648074662659,0.8064458157682901,1.0463339197254689,0,0,0,1
-0.9120554746626591,-0.31121121423170983,0.6110474197254688,0,0,0,1
-0.9120554746626591,-0.31121121423170983,0.6110474197254688,0,0,0,1
-0.4141764446626591,-0.7129110542317099,0.3021732197254688,0,0,0,1
1.755536525337341,1.0710170157682901,-0.43104985027453124,0,0,0,1
-1.163303874662659,0.09300904576829012,-1.0679817802745313,0,0,0,1
-1.163303874662659,0.09300904576829012,-1.0679817802745313,0,0,0,1
-0.8239464746626591,-0.48254392423170983,-0.4981781602745312,0,0,0,1
0.3143239253373409,0.2643166357682901,0.08199890972546878,0,0,0,1
1.561243525337341,0.23560461576829012,0.19845207972546877,0,0,0,1
1.561243525337341,0.23560461576829012,0.19845207972546877,0,0,0,1
0.5417819253373409,-0.43411372423170985,-0.007038863044531225,0,0,0,1
0.5417819253373409,-0.43411372423170985,-0.007038863044531225,0,0,0,1
-1.780639174662659,-0.21334765423170987,0.007907955725468773,0,0,0,1
1.719057625337341,-1.37294178423171,-0.17869488027453123,0,0,0,1
2.143187025337341,-0.7721719842317099,-0.44387141027453125,0,0,0,1
1.229487925337341,0.3876329157682901,-0.7017121802745312,0,0,0,1
0.3796172253373409,1.23226701576829,-0.21525374027453123,0,0,0,1
-0.7527184346626591,1.4439870157682901,0.3782685697254688,0,0,0,1
-2.400636674662659,2.40607121576829,0.9115150897254688,0,0,0,1
-0.5923342746626591,-0.6292647842317098,-0.34228090027453123,0,0,0,1
2.2373300253373407,-2.47272628423171,-0.6862907802745312,0,0,0,1
2.2373300253373407,-2.47272628423171,-0.6862907802745312,0,0,0,1
1.648078425337341,-1.77623148423171,-0.5574844202745312,0,0,0,1
0.4061494053373409,-0.05983525123170987,0.09903367972546877,0,0,0,1
-0.002336009162659106,1.53993071576829,0.5872159197254688,0,0,0,1
-1.722523174662659,1.09488071576829,0.010495035725468775,0,0,0,1
-1.665709974662659,-0.5125416342317098,-0.5113953802745311,0,0,0,1
-1.665709974662659,-0.5125416342317098,-0.5113953802745311,0,0,0,1
0.8772473253373408,-0.4440216242317099,-0.07247904027453123,0,0,0,1
