acc_x,acc_y,acc_z,gyro_x,gyro_y,gyro_z,label
-0.9866423446626591,0.8634229157682901,0.08598485472546877,0,0,0,1
-0.2193531846626591,0.7252554157682901,0.060772629725468784,0,0,0,1
0.6944060253373409,0.34545643576829016,-0.16034612027453124,0,0,0,1
0.8323931853373409,0.26923861576829017,-0.4770395502745312,0,0,0,1
0.2048478253373409,-0.6620789842317099,-0.45375046027453125,0,0,0,1
-0.3805985246626591,-0.8580752442317099,-0.35174378027453124,0,0,0,1
-0.7381815746626591,-0.45966428423170985,-0.3003075402745312,0,0,0,1
-0.28885697466265914,-0.19087923423170988,0.06367828972546877,0,0,0,1
0.4513297253373409,-0.04364166823170987,0.12417807972546877,0,0,0,1
0.4513297253373409,-0.04364166823170987,0.12417807972546877,0,0,0,1
0.5363660253373409,0.07716060076829014,0.09843399972546878,0,0,0,1
-0.33450649466265914,-0.009580683231709871,-0.25486448027453124,0,0,0,1
-0.33450649466265914,-0.009580683231709871,-0.25486448027453124,0,0,0,1
-0.46274897466265913,0.12635863576829012,-0.21491531027453123,0,0,0,1
0.08713771533734088,0.6382227157682901,-0.17731479027453123,0,0,0,1
0.08713771533734088,0.6382227157682901,-0.17731479027453123,0,0,0,1
0.1781153853373409,-0.3198334842317099,0.04074284272546878,0,0,0,1
0.1781153853373409,-0.3198334842317099,0.04074284272546878,0,0,0,1
-0.06991718466265912,-0.41676038423170986,0.07856019972546877,0,0,0,1
-0.11913154866265911,0.06120870576829013,0.23640509972546878,0,0,0,1
0.2781424653373409,0.44322681576829015,0.14989587972546878,0,0,0,1
0.2781424653373409,0.44322681576829015,0.14989587972546878,0,0,0,1
0.2781424653373409,0.44322681576829015,0.14989587972546878,0,0,0,1
0.2516169753373409,-0.3742960242317099,-0.45192441027453123,0,0,0,1
0.2516169753373409,-0.3742960242317099,-0.45192441027453123,0,0,0,1
0.0600409653373409,0.2831320957682901,-0.16710904027453122,0,0,0,1
0.49819902533734084,0.01781116776829013,0.07511969972546877,0,0,0,1
0.3784356253373409,0.05736605576829013,0.19530381972546876,0,0,0,1
0.3784356253373409,0.05736605576829013,0.19530381972546876,0,0,0,1
0.4549431953373409,0.29120786576829016,-0.10262045427453123,0,0,0,1
-0.46245144466265914,-0.07891229923170986,-0.24900994027453122,0,0,0,1
-0.060939294662659106,0.05784652576829013,-0.3169932802745312,0,0,0,1
0.3943886953373409,0.13757679576829013,-0.2598919602745312,0,0,0,1
0.7374167553373409,-0.0031395522317098712,-0.21514443027453123,0,0,0,1
0.8249697853373409,-0.26346103423170986,-0.34380242027453123,0,0,0,1
0.4597935853373409,-0.27709971423170987,-0.2968261002745312,0,0,0,1
-0.17234848466265912,0.17622272576829012,-0.21707168027453122,0,0,0,1
-0.4837183746626591,0.5099698457682902,-0.09971312027453123,0,0,0,1
-0.4837183746626591,0.5099698457682902,-0.09971312027453123,0,0,0,1
-0.5029320546626591,0.4391740157682901,0.11163719972546877,0,0,0,1
-0.3673777446626591,0.22247274576829013,-0.12507084027453122,0,0,0,1
-0.03664444266265911,-0.11527013423170987,-0.19748428027453124,0,0,0,1
-0.03664444266265911,-0.11527013423170987,-0.19748428027453124,0,0,0,1
0.2544922953373409,-0.47596253423170987,-0.29549048027453123,0,0,0,1
0.2224135553373409,-0.45244694423170984,-0.42795494027453124,0,0,0,1
0.11835719533734089,0.15437798576829012,-0.27708796027453125,0,0,0,1
-0.014544947662659107,0.5164852157682901,-0.15139070027453122,0,0,0,1
-0.1796965446626591,0.5383171157682901,-0.12983462027453122,0,0,0,1
0.0419783753373409,0.1780122557682901,-0.14605168027453122,0,0,0,1
0.5102687253373409,-0.39720258423170984,-0.13052669027453123,0,0,0,1
0.7858519753373409,-0.2992314542317099,-0.21610955027453124,0,0,0,1
0.3953881453373409,-0.07889184023170986,-0.061764750274531224,0,0,0,1
-0.2814650346626591,0.37548013576829015,0.027011243725468776,0,0,0,1
-0.2814650346626591,0.37548013576829015,0.027011243725468776,0,0,0,1
-1.234931474662659,0.3862151657682901,0.08104738472546877,0,0,0,1
0.2540154653373409,-0.30340026423170985,-0.15025315027453123,0,0,0,1
1.324931625337341,-0.3174595042317099,-0.12423143027453123,0,0,0,1
0.7177186253373409,0.05000108076829013,-0.27015671027453125,0,0,0,1
0.7177186253373409,0.05000108076829013,-0.27015671027453125,0,0,0,1
-0.12225673966265911,-0.13255563423170988,-0.17030230027453122,0,0,0,1
-0.9801134746626591,-0.05935097923170987,0.06716146972546877,0,0,0,1
-0.6219448746626591,0.42105235576829014,0.19174703972546878,0,0,0,1
-0.6219448746626591,0.42105235576829014,0.19174703972546878,0,0,0,1
-0.6219448746626591,0.42105235576829014,0.19174703972546878,0,0,0,1
1.176884225337341,0.28457965576829014,-0.033614786274531225,0,0,0,1
0.5051179253373409,0.4409711157682901,-0.37389770027453123,0,0,0,1
-0.0712380246626591,0.029011491768290126,-0.34248081027453126,0,0,0,1
-0.42961834466265914,-0.37101395423170985,-0.2695248402745312,0,0,0,1
-0.8054699746626591,0.05309028576829013,-0.26961020027453125,0,0,0,1
-0.6423439746626591,0.49857427576829016,-0.14152745027453123,0,0,0,1
0.1445670253373409,0.3044934457682901,-0.04509535627453122,0,0,0,1
0.7361273953373408,0.08562915576829012,0.25063123972546875,0,0,0,1
0.5445475753373409,-0.17541365423170988,0.20119293972546878,0,0,0,1
0.4822716853373409,-0.1897271342317099,-0.05414024027453122,0,0,0,1
0.5322423253373408,-0.3194012842317099,-0.13290516027453123,0,0,0,1
0.5322423253373408,-0.3194012842317099,-0.13290516027453123,0,0,0,1
0.5322423253373408,-0.3194012842317099,-0.13290516027453123,0,0,0,1
0.4946856653373409,0.41513933576829015,-0.06180331227453122,0,0,0,1
0.4946856653373409,0.41513933576829015,-0.06180331227453122,0,0,0,1
0.8949275253373409,0.2057302957682901,-0.15561792027453122,0,0,0,1
0.8949275253373409,0.2057302957682901,-0.15561792027453122,0,0,0,1
0.6564002253373409,-0.20742937423170987,-0.2603373202745312,0,0,0,1
-0.3176483946626591,0.1851071857682901,0.04457381172546878,0,0,0,1
-0.3176483946626591,0.1851071857682901,0.04457381172546878,0,0,0,1
-0.9233240746626591,-0.22738699423170988,-0.00044259577453122523,0,0,0,1
1.669210925337341,-0.44250975423170985,-0.14829627027453124,0,0,0,1
1.669210925337341,-0.44250975423170985,-0.14829627027453124,0,0,0,1
1.669210925337341,-0.44250975423170985,-0.14829627027453124,0,0,0,1
-0.3432717146626591,0.5048646157682901,0.016816584725468774,0,0,0,1
-0.3432717146626591,0.5048646157682901,0.016816584725468774,0,0,0,1
-1.434215974662659,0.6149195657682901,-0.09927937527453123,0,0,0,1
-1.434215974662659,0.6149195657682901,-0.09927937527453123,0,0,0,1
-1.149904674662659,0.2814761157682901,-0.46432266027453123,0,0,0,1
0.7207846753373409,-0.5236997842317098,-0.34376034027453123,0,0,0,1
1.573792925337341,-0.46444718423170983,-0.35719208027453125,0,0,0,1
1.573792925337341,-0.46444718423170983,-0.35719208027453125,0,0,0,1
0.6174502253373408,0.1837557757682901,-0.31595233027453123,0,0,0,1
-0.09226272866265911,-0.22810741423170988,0.12245901972546877,0,0,0,1
-0.09226272866265911,-0.22810741423170988,0.12245901972546877,0,0,0,1
-0.7457604246626591,0.15108917576829012,-0.24523738027453124,0,0,0,1
-0.2464384846626591,0.29021971576829014,-0.15396842027453123,0,0,0,1
0.38803817533734086,0.31882183576829015,0.03143724672546878,0,0,0,1
-0.2930035446626591,-0.018675562231709873,-0.27881345027453125,0,0,0,1
0.4146952753373409,-0.6015581842317098,-0.3942740802745312,0,0,0,1
0.6218648253373409,-0.6633208242317099,-0.16652045027453122,0,0,0,1
-0.5132231746626591,0.30557216576829016,-0.007279665804531225,0,0,0,1
-0.5132231746626591,0.30557216576829016,-0.007279665804531225,0,0,0,1
-0.09555195466265912,0.31840211576829014,0.16931017972546877,0,0,0,1
-0.03332947066265911,0.19585158576829012,0.19298627972546878,0,0,0,1
-0.017437441662659106,0.1381274057682901,-0.19405142027453123,0,0,0,1
0.8962788753373409,-0.2113433442317099,-0.2803807002745312,0,0,0,1
1.224239825337341,-0.45711840423170985,-0.3414526302745312,0,0,0,1
1.224239825337341,-0.45711840423170985,-0.3414526302745312,0,0,0,1
-0.5742554746626591,0.23940575576829012,-0.2634773602745312,0,0,0,1
-0.2858776746626591,0.08382707576829013,-0.05593708327453122,0,0,0,1
0.3334717953373409,-0.13349115423170987,0.06633790972546877,0,0,0,1
0.3334717953373409,-0.13349115423170987,0.06633790972546877,0,0,0,1
0.6244931253373409,-0.3315152042317099,0.14766826972546876,0,0,0,1
-0.05192898066265911,-0.26709448423170984,-0.16960433027453123,0,0,0,1
-0.2314400546626591,-0.07290867423170987,-0.20551977027453122,0,0,0,1
0.6149363653373409,0.08942182576829014,-0.07055071027453123,0,0,0,1
0.2454943853373409,0.26932625576829017,-0.6684400802745312,0,0,0,1
0.2454943853373409,0.26932625576829017,-0.6684400802745312,0,0,0,1
0.2601256553373409,-0.27530698423170985,-0.7478987302745311,0,0,0,1
-0.7635473746626591,-0.1408815542317099,-0.16448042027453122,0,0,0,1
-1.388098274662659,0.6885488157682902,-0.14965990027453124,0,0,0,1
-0.4322924446626591,0.5554982557682902,0.04697557972546878,0,0,0,1
0.4979729853373409,0.17351027576829012,-0.4522399602745312,0,0,0,1
0.4979729853373409,0.17351027576829012,-0.4522399602745312,0,0,0,1
0.6598229553373409,-0.4423557342317099,-0.6183477402745312,0,0,0,1
-0.3778910446626591,-0.24242031423170987,-0.5737906802745312,0,0,0,1
-0.3778910446626591,-0.24242031423170987,-0.5737906802745312,0,0,0,1
-0.7415356746626591,0.13422571576829012,-0.2960113002745312,0,0,0,1
0.004872815337340895,0.26680143576829013,0.3112362197254688,0,0,0,1
0.1452727453373409,0.42629935576829014,0.16595503972546877,0,0,0,1
0.1452727453373409,0.42629935576829014,0.16595503972546877,0,0,0,1
0.46511602533734087,0.5439422157682902,-0.08862355527453122,0,0,0,1
0.2423319953373409,-0.025284756231709872,-0.3937007502745312,0,0,0,1
0.2423319953373409,-0.025284756231709872,-0.3937007502745312,0,0,0,1
0.08841182533734089,-0.35233936423170986,-0.41037771027453124,0,0,0,1
0.08841182533734089,-0.35233936423170986,-0.41037771027453124,0,0,0,1
0.6926894253373409,-0.14671332423170988,-0.47736218027453126,0,0,0,1
0.6926894253373409,-0.14671332423170988,-0.47736218027453126,0,0,0,1
0.7381835253373409,0.2703740157682901,0.2601589197254688,0,0,0,1
-1.483272974662659,0.44175263576829016,0.33014841972546877,0,0,0,1
-1.483272974662659,0.44175263576829016,0.33014841972546877,0,0,0,1
-0.8768524746626591,0.08888114576829013,0.15330948972546876,0,0,0,1
1.171613225337341,-0.21009246423170988,-0.6774153402745312,0,0,0,1
1.171613225337341,-0.21009246423170988,-0.6774153402745312,0,0,0,1
1.394916025337341,-0.29056738423170986,-0.8679028502745312,0,0,0,1
0.8180537253373409,-0.11172706423170987,-0.8328298802745312,0,0,0,1
-0.3600487546626591,0.1511049557682901,-0.47386792027453123,0,0,0,1
-1.024240974662659,0.5644265557682902,-0.07244161027453123,0,0,0,1
1.062807625337341,0.17974624576829012,0.30097141972546876,0,0,0,1
1.062807625337341,0.17974624576829012,0.30097141972546876,0,0,0,1
1.062807625337341,0.17974624576829012,0.30097141972546876,0,0,0,1
1.444132325337341,-0.3743437042317099,-0.040346117274531225,0,0,0,1
0.8371167253373409,-0.8402614442317099,-0.32029358027453125,0,0,0,1
-0.8458733446626591,-0.1996891342317099,-0.37353876027453126,0,0,0,1
-0.8458733446626591,-0.1996891342317099,-0.37353876027453126,0,0,0,1
-1.598918374662659,0.8735843157682901,-0.29969844027453124,0,0,0,1
0.5070452853373408,0.43684499576829017,-0.38507256027453124,0,0,0,1
1.919964325337341,-0.6058216542317099,-0.5498756502745312,0,0,0,1
1.919964325337341,-0.6058216542317099,-0.5498756502745312,0,0,0,1
1.919964325337341,-0.6058216542317099,-0.5498756502745312,0,0,0,1
1.802088325337341,-0.9930075242317099,-0.46666655027453124,0,0,0,1
-0.4522328246626591,-0.03344350723170987,0.3832095597254688,0,0,0,1
-1.051485474662659,0.6012192557682902,0.5375572197254688,0,0,0,1
-1.051485474662659,0.6012192557682902,0.5375572197254688,0,0,0,1
-0.9232249146626591,0.05926546776829013,-0.06383809627453123,0,0,0,1
-0.09891269966265911,-0.37497175423170986,-0.5283658202745312,0,0,0,1
0.5590119253373409,-0.33429662423170986,-0.6313194302745312,0,0,0,1
0.8159117853373409,-0.11835817423170987,-0.8819670802745312,0,0,0,1
0.8358597953373409,-0.1565122442317099,-0.8081319802745311,0,0,0,1
0.8358597953373409,-0.1565122442317099,-0.8081319802745311,0,0,0,1
-1.312346874662659,0.5892450157682901,0.6542769197254689,0,0,0,1
-0.7648167746626591,0.08352195076829012,0.8085140897254688,0,0,0,1
0.2131924753373409,-0.5541013842317098,0.4153886697254688,0,0,0,1
0.9956717653373409,-1.04215058423171,-0.05251762427453122,0,0,0,1
1.087407625337341,-0.9943384842317099,-0.4840678302745312,0,0,0,1
-0.002906306362659106,-0.1842194842317099,-0.15661398027453122,0,0,0,1
-0.8064331746626591,1.27650401576829,-0.35369191027453123,0,0,0,1
-0.8064331746626591,1.27650401576829,-0.35369191027453123,0,0,0,1
-0.8064331746626591,1.27650401576829,-0.35369191027453123,0,0,0,1
0.9121375253373409,-0.14785344423170987,-0.6377158502745311,0,0,0,1
0.8383031253373409,-0.41810010423170985,-0.2947838002745312,0,0,0,1
0.5758347653373409,0.18394749576829011,0.2531476197254688,0,0,0,1
0.5758347653373409,0.18394749576829011,0.2531476197254688,0,0,0,1
-1.060865874662659,0.30607135576829014,0.4943868197254688,0,0,0,1
-1.060865874662659,0.30607135576829014,0.4943868197254688,0,0,0,1
-0.10561035466265911,-0.9183184342317099,-0.017947288274531226,0,0,0,1
-0.10561035466265911,-0.9183184342317099,-0.017947288274531226,0,0,0,1
1.121468125337341,0.4723234157682901,-0.4065461502745312,0,0,0,1
1.121468125337341,0.4723234157682901,-0.4065461502745312,0,0,0,1
0.9262385253373409,0.7530579157682902,-0.3954478802745312,0,0,0,1
0.5466571253373409,0.47047309576829016,-0.7350288302745311,0,0,0,1
