acc_x,acc_y,acc_z,gyro_x,gyro_y,gyro_z,label
-1.411630174662659,1.45429611576829,-0.15981653027453124,0,0,0,1
-1.411630174662659,1.45429611576829,-0.15981653027453124,0,0,0,1
-0.7968315746626591,1.36602831576829,0.20112278972546876,0,0,0,1
1.221170925337341,-0.5018703142317098,-0.43125972027453124,0,0,0,1
1.221170925337341,-0.5018703142317098,-0.43125972027453124,0,0,0,1
1.982029425337341,-0.12285228423170987,0.05590769472546878,0,0,0,1
-0.7147164146626591,0.8367056157682902,0.15961005972546877,0,0,0,1
-2.428444274662659,1.16069511576829,0.10926165972546877,0,0,0,1
-2.428444274662659,1.16069511576829,0.10926165972546877,0,0,0,1
-2.428444274662659,1.16069511576829,0.10926165972546877,0,0,0,1
-1.108241574662659,0.0006757710682901287,0.2485175697254688,0,0,0,1
1.519078725337341,-0.5006484842317098,-0.15017191027453122,0,0,0,1
1.519078725337341,-0.5006484842317098,-0.15017191027453122,0,0,0,1
0.8382220253373409,0.26423259576829017,0.47495844972546875,0,0,0,1
0.8382220253373409,0.26423259576829017,0.47495844972546875,0,0,0,1
-0.4699597246626591,1.17066191576829,-0.14138481027453123,0,0,0,1
1.233353125337341,-0.2296970342317099,-0.5375170402745312,0,0,0,1
1.233142425337341,-0.2213201042317099,-0.6576128802745311,0,0,0,1
-0.9571137246626591,0.13192166576829012,-0.7978121802745312,0,0,0,1
1.069756025337341,-0.22370363423170989,0.34901441972546876,0,0,0,1
1.069756025337341,-0.22370363423170989,0.34901441972546876,0,0,0,1
-0.3200592746626591,0.6264972157682901,0.2679517897254688,0,0,0,1
1.456575925337341,0.08846818576829013,0.7162181197254688,0,0,0,1
0.6610694253373409,0.31403316576829016,0.44547515972546875,0,0,0,1
-0.030734522662659105,0.8939930157682902,-0.31933430027453125,0,0,0,1
1.621934425337341,0.5209892157682902,-0.27408996027453125,0,0,0,1
2.5150571253373406,0.2757773157682901,-0.4166712502745312,0,0,0,1
0.9543938753373409,0.5134038157682902,-0.7274627402745312,0,0,0,1
0.7066769753373409,-0.6163583842317099,-0.3103075802745312,0,0,0,1
0.7066769753373409,-0.6163583842317099,-0.3103075802745312,0,0,0,1
0.2261033253373409,-0.5802749242317099,0.15360995972546876,0,0,0,1
-1.062116174662659,0.26785926576829017,0.27305173972546876,0,0,0,1
-1.062116174662659,0.26785926576829017,0.27305173972546876,0,0,0,1
0.7752881253373409,-0.021767031231709873,0.7627039797254688,0,0,0,1
1.351166225337341,-0.46191762423170984,0.2650414197254688,0,0,0,1
2.2931304253373406,-0.48708383423170987,-0.24549285027453122,0,0,0,1
2.2931304253373406,-0.48708383423170987,-0.24549285027453122,0,0,0,1
2.2931304253373406,-0.48708383423170987,-0.24549285027453122,0,0,0,1
0.6265206253373409,0.44248821576829017,-0.22242883027453123,0,0,0,1
-1.097011074662659,-0.2013382142317099,0.15092875972546876,0,0,0,1
-1.097011074662659,-0.2013382142317099,0.15092875972546876,0,0,0,1
-0.23368500466265912,0.30819113576829016,0.17256363972546876,0,0,0,1
-0.23284004466265912,0.30699183576829014,0.18331416972546877,0,0,0,1
1.743358125337341,1.09026291576829,-0.8376380802745311,0,0,0,1
0.029853360337340894,0.6317004757682901,-0.9176486402745312,0,0,0,1
0.029853360337340894,0.6317004757682901,-0.9176486402745312,0,0,0,1
0.029853360337340894,0.6317004757682901,-0.9176486402745312,0,0,0,1
-0.5535855146626592,0.15450775576829012,-1.0574504802745313,0,0,0,1
0.1802230053373409,-1.01422708423171,-0.012388439474531224,0,0,0,1
0.1802230053373409,-1.01422708423171,-0.012388439474531224,0,0,0,1
0.41147376533734087,-0.35668946423170983,0.5734270197254688,0,0,0,1
0.41147376533734087,-0.35668946423170983,0.5734270197254688,0,0,0,1
-0.5247330746626591,0.5299010157682902,0.6750637197254689,0,0,0,1
-0.9077801746626591,0.08451608176829013,0.22949370972546876,0,0,0,1
-0.9077801746626591,0.08451608176829013,0.22949370972546876,0,0,0,1
-0.9077801746626591,0.08451608176829013,0.22949370972546876,0,0,0,1
-0.9077801746626591,0.08451608176829013,0.22949370972546876,0,0,0,1
1.189856025337341,-0.13848186423170988,-0.7588170502745312,0,0,0,1
1.551280525337341,0.38923811576829015,-1.208256980274531,0,0,0,1
1.551280525337341,0.38923811576829015,-1.208256980274531,0,0,0,1
-1.602485174662659,-0.03850868023170987,0.7182761697254688,0,0,0,1
1.186783325337341,0.10684874976829013,1.2996469197254688,0,0,0,1
1.186783325337341,0.10684874976829013,1.2996469197254688,0,0,0,1
0.7829566253373409,0.22700572576829012,0.5062783197254688,0,0,0,1
-0.12023971866265912,0.0015287135682901286,0.17762383972546877,0,0,0,1
-1.034005674662659,0.6550107757682901,-0.22449795027453123,0,0,0,1
1.690961425337341,-0.5164565242317098,0.5699116897254688,0,0,0,1
0.7078681253373409,0.04168545076829013,0.7144049197254688,0,0,0,1
0.7587609253373409,-0.04298436423170987,0.7984369697254688,0,0,0,1
0.7587609253373409,-0.04298436423170987,0.7984369697254688,0,0,0,1
-0.8580794146626591,0.28739221576829016,-0.22069392027453122,0,0,0,1
1.428249825337341,-0.9976906842317098,-1.1715725802745312,0,0,0,1
1.428249825337341,-0.9976906842317098,-1.1715725802745312,0,0,0,1
0.5489926253373408,-0.8830124842317099,-0.6198118802745312,0,0,0,1
0.6644797253373409,0.6542631557682902,0.9940769197254689,0,0,0,1
0.6644797253373409,0.6542631557682902,0.9940769197254689,0,0,0,1
0.6353745653373409,1.16042041576829,0.8376999197254689,0,0,0,1
0.8929410253373409,0.40430261576829013,0.26538806972546874,0,0,0,1
1.004338725337341,-0.7092047842317099,-0.22098389027453122,0,0,0,1
-1.946740574662659,0.47535491576829014,-0.3369810802745312,0,0,0,1
-1.946740574662659,0.47535491576829014,-0.3369810802745312,0,0,0,1
-1.946740574662659,0.47535491576829014,-0.3369810802745312,0,0,0,1
-1.538833174662659,1.42379451576829,-0.10433778027453124,0,0,0,1
0.5960478953373409,1.36595691576829,-0.027234109274531227,0,0,0,1
2.218086725337341,-0.3336909242317099,-0.3211720802745312,0,0,0,1
1.751580725337341,-1.32326398423171,-0.36410752027453125,0,0,0,1
1.751580725337341,-1.32326398423171,-0.36410752027453125,0,0,0,1
0.8220801253373409,-1.4451521842317099,0.13631274972546878,0,0,0,1
-0.8850102246626591,-0.5592313242317098,0.21559789972546878,0,0,0,1
-0.8850102246626591,-0.5592313242317098,0.21559789972546878,0,0,0,1
-0.9811987746626591,0.7561690157682901,0.48162431972546876,0,0,0,1
0.1712813553373409,0.4662524357682901,0.47002389972546876,0,0,0,1
0.1712813553373409,0.4662524357682901,0.47002389972546876,0,0,0,1
1.230216525337341,-0.6093584842317099,-0.40692493027453125,0,0,0,1
1.230216525337341,-0.6093584842317099,-0.40692493027453125,0,0,0,1
-1.347133174662659,0.8565169157682901,1.1577963197254688,0,0,0,1
-1.348202174662659,0.8508891157682902,1.1413643197254688,0,0,0,1
-1.348202174662659,0.8508891157682902,1.1413643197254688,0,0,0,1
-0.16274021466265912,1.89236161576829,1.2269879197254687,0,0,0,1
-0.16274021466265912,1.89236161576829,1.2269879197254687,0,0,0,1
2.4306312253373408,-0.09113991423170988,-0.30416945027453124,0,0,0,1
0.9400696953373409,-0.9764256342317098,-1.245257880274531,0,0,0,1
-0.9100870746626591,0.20931560576829011,-0.5742145502745312,0,0,0,1
-2.306723074662659,1.30723171576829,0.13021793972546877,0,0,0,1
-2.306723074662659,1.30723171576829,0.13021793972546877,0,0,0,1
-0.5678095746626591,0.27556381576829014,0.6889536197254689,0,0,0,1
-0.5678095746626591,0.27556381576829014,0.6889536197254689,0,0,0,1
0.7144475253373409,-0.7501650842317099,0.2860906397254688,0,0,0,1
2.4931445253373408,-1.18749188423171,-0.3318443002745312,0,0,0,1
1.323368525337341,-0.1806413242317099,-0.06776252527453122,0,0,0,1
-0.7374815746626591,0.9276105157682901,-0.024326713274531227,0,0,0,1
-1.721003074662659,1.04348281576829,0.03657290172546878,0,0,0,1
-1.059464874662659,-0.09319728423170986,-0.3394705402745312,0,0,0,1
-1.059464874662659,-0.09319728423170986,-0.3394705402745312,0,0,0,1
-0.7168154746626592,-0.5262568442317098,-0.4624124502745312,0,0,0,1
1.056826125337341,-1.00391408423171,-0.18065766027453123,0,0,0,1
1.056826125337341,-1.00391408423171,-0.18065766027453123,0,0,0,1
-0.13170097466265912,0.3140807957682901,-0.49805364027453125,0,0,0,1
-0.13170097466265912,0.3140807957682901,-0.49805364027453125,0,0,0,1
-1.013961274662659,0.06746836576829013,-0.4214036202745312,0,0,0,1
-1.464468474662659,-0.47683758423170985,-0.3503449802745312,0,0,0,1
-1.464468474662659,-0.47683758423170985,-0.3503449802745312,0,0,0,1
-1.464468474662659,-0.47683758423170985,-0.3503449802745312,0,0,0,1
1.110852725337341,0.49528356576829013,-0.05705234527453122,0,0,0,1
2.317843925337341,0.3200097157682901,-0.026619823274531225,0,0,0,1
2.317843925337341,0.3200097157682901,-0.026619823274531225,0,0,0,1
-2.234071674662659,-0.6612752842317099,0.09355678972546877,0,0,0,1
-2.234071674662659,-0.6612752842317099,0.09355678972546877,0,0,0,1
-2.234071674662659,-0.6612752842317099,0.09355678972546877,0,0,0,1
-2.234071674662659,-0.6612752842317099,0.09355678972546877,0,0,0,1
-1.319561474662659,0.1514704457682901,0.9285322697254689,0,0,0,1
-1.319561474662659,0.1514704457682901,0.9285322697254689,0,0,0,1
1.128222025337341,-0.13054866423170988,0.030238419725468774,0,0,0,1
1.128222025337341,-0.13054866423170988,0.030238419725468774,0,0,0,1
2.466993725337341,-0.8757874842317098,-0.6151772502745312,0,0,0,1
0.2470002253373409,0.5296920757682901,-0.3068021802745312,0,0,0,1
-2.374425374662659,1.73497251576829,0.43393959972546875,0,0,0,1
-1.474569774662659,0.46014566576829014,0.5528611797254688,0,0,0,1
-1.474569774662659,0.46014566576829014,0.5528611797254688,0,0,0,1
0.8716874253373409,-1.01403648423171,0.6028308197254688,0,0,0,1
0.24607326533734086,-0.9594572842317098,0.13144602972546876,0,0,0,1
-0.8227362746626591,-0.6213117842317099,0.9386368697254688,0,0,0,1
-0.8227362746626591,-0.6213117842317099,0.9386368697254688,0,0,0,1
-0.8227362746626591,-0.6213117842317099,0.9386368697254688,0,0,0,1
-1.534573974662659,0.4246124157682901,1.1711206197254689,0,0,0,1
-0.5812134746626592,1.00496381576829,0.5727361197254688,0,0,0,1
2.927259925337341,-1.91388688423171,-0.9640292802745312,0,0,0,1
2.927259925337341,-1.91388688423171,-0.9640292802745312,0,0,0,1
1.863614525337341,-2.18300248423171,-1.4705173802745313,0,0,0,1
0.5281367253373409,-1.5041100842317099,-0.8806525202745312,0,0,0,1
-0.9435419746626591,-0.31241871423170986,0.03847083272546878,0,0,0,1
-2.3046082746626593,1.11621021576829,0.6861520697254688,0,0,0,1
-1.934162074662659,1.26367621576829,1.1645481197254688,0,0,0,1
0.6740527253373408,-0.2482129442317099,0.6179927197254689,0,0,0,1
1.500152125337341,0.1592545157682901,0.29423769972546876,0,0,0,1
1.551725925337341,1.58074371576829,0.10812419472546878,0,0,0,1
-0.9019560746626591,0.9927463157682902,-1.1167128802745312,0,0,0,1
-0.9019560746626591,0.9927463157682902,-1.1167128802745312,0,0,0,1
-0.9134573746626591,-2.4257670842317096,-0.8629063802745311,0,0,0,1
-0.9134573746626591,-2.4257670842317096,-0.8629063802745311,0,0,0,1
0.9363217253373409,-0.33751354423170987,0.9564788197254688,0,0,0,1
0.1403823053373409,-0.6588748842317098,-0.20800224027453124,0,0,0,1
0.09510471033734089,-0.8329263842317098,-1.457190980274531,0,0,0,1
0.09510471033734089,-0.8329263842317098,-1.457190980274531,0,0,0,1
0.09510471033734089,-0.8329263842317098,-1.457190980274531,0,0,0,1
-2.4278211746626592,-0.26402686423170985,0.03320893472546878,0,0,0,1
-2.4278211746626592,-0.26402686423170985,0.03320893472546878,0,0,0,1
0.4687562253373409,-0.39843418423170984,1.2945984197254687,0,0,0,1
0.4687562253373409,-0.39843418423170984,1.2945984197254687,0,0,0,1
1.220518625337341,-0.1525611742317099,1.246750119725469,0,0,0,1
0.8123908253373409,0.5802803857682901,0.5493709697254688,0,0,0,1
0.49751235533734084,0.07865595576829013,-0.11301973627453123,0,0,0,1
-0.7084908346626592,-0.7209625842317099,-1.0111241802745312,0,0,0,1
-2.5527429746626593,-0.8764905842317099,-1.8951398802745312,0,0,0,1
-1.239216274662659,-2.1416646842317095,-0.7745120202745311,0,0,0,1
-0.36084887466265914,-0.32413895423170985,1.0249953197254689,0,0,0,1
1.589338825337341,0.28263117576829017,1.4576508197254687,0,0,0,1
1.589338825337341,0.28263117576829017,1.4576508197254687,0,0,0,1
2.6315350253373406,-0.03135457423170987,1.7201935197254687,0,0,0,1
-1.236595574662659,0.38310051576829013,1.0540080197254689,0,0,0,1
-1.236595574662659,0.38310051576829013,1.0540080197254689,0,0,0,1
-1.353199474662659,0.8367663757682902,0.43586035972546877,0,0,0,1
-1.353199474662659,0.8367663757682902,0.43586035972546877,0,0,0,1
-0.3859448246626591,1.42179931576829,0.09912782972546877,0,0,0,1
2.0568700253373406,1.06823961576829,-1.2386463802745311,0,0,0,1
2.0568700253373406,1.06823961576829,-1.2386463802745311,0,0,0,1
