acc_x,acc_y,acc_z,gyro_x,gyro_y,gyro_z,label
-0.5865540346626591,0.5315527157682901,-0.05390469527453122,0,0,0,1
0.5252242253373409,-0.6283688342317099,-0.4673066402745312,0,0,0,1
0.5548663253373409,-0.5668092142317098,-0.3201018002745312,0,0,0,1
0.4996619253373409,0.05463357576829013,-0.039051990274531226,0,0,0,1
0.3308539553373409,0.47996767576829014,0.37403198972546875,0,0,0,1
0.3308539553373409,0.47996767576829014,0.37403198972546875,0,0,0,1
-0.18864296466265912,-0.2981447642317099,-0.029687361274531227,0,0,0,1
0.2206454453373409,-0.6400870542317099,-0.2680437002745312,0,0,0,1
0.2206454453373409,-0.6400870542317099,-0.2680437002745312,0,0,0,1
0.2206454453373409,-0.6400870542317099,-0.2680437002745312,0,0,0,1
-0.4355492446626591,0.5837824157682902,-0.27417183027453124,0,0,0,1
-0.4355492446626591,0.5837824157682902,-0.27417183027453124,0,0,0,1
-0.4355492446626591,0.5837824157682902,-0.27417183027453124,0,0,0,1
-1.192179174662659,-0.27996148423170986,-0.22285491027453122,0,0,0,1
-1.192179174662659,-0.27996148423170986,-0.22285491027453122,0,0,0,1
-0.2325854146626591,0.28021504576829015,-0.062393704274531225,0,0,0,1
-0.30924270466265913,-0.04593240823170987,-0.07013043527453122,0,0,0,1
-0.30924270466265913,-0.04593240823170987,-0.07013043527453122,0,0,0,1
-0.30924270466265913,-0.04593240823170987,-0.07013043527453122,0,0,0,1
-0.30924270466265913,-0.04593240823170987,-0.07013043527453122,0,0,0,1
0.005474583337340894,0.6251381857682902,-0.4588918402745312,0,0,0,1
0.6696744253373409,0.14393513576829012,-0.17405844027453124,0,0,0,1
0.6696744253373409,0.14393513576829012,-0.17405844027453124,0,0,0,1
0.6696744253373409,0.14393513576829012,-0.17405844027453124,0,0,0,1
0.12496234533734088,-0.25026116423170985,-0.0023808345745312256,0,0,0,1
-0.2343506646626591,0.21638889576829012,0.6740004197254689,0,0,0,1
-0.2343506646626591,0.21638889576829012,0.6740004197254689,0,0,0,1
-0.2066931546626591,0.9864881157682901,0.5334650197254688,0,0,0,1
-0.2066931546626591,0.9864881157682901,0.5334650197254688,0,0,0,1
0.5930819653373409,0.8219707757682901,0.39033775972546875,0,0,0,1
-0.2594694946626591,-1.03916048423171,-0.5732050802745312,0,0,0,1
-0.6198515746626592,-1.10637998423171,-0.20841253027453122,0,0,0,1
0.3138327753373409,-0.15134949423170987,0.10550085972546877,0,0,0,1
0.3138327753373409,-0.15134949423170987,0.10550085972546877,0,0,0,1
1.295302925337341,0.7765422157682902,0.24018638972546877,0,0,0,1
1.364427125337341,-0.2445714542317099,-0.03207688927453122,0,0,0,1
0.45216514533734087,-1.09629848423171,0.03557450972546878,0,0,0,1
0.45216514533734087,-1.09629848423171,0.03557450972546878,0,0,0,1
-0.9388270246626591,-0.8657051842317098,0.09723337972546878,0,0,0,1
-0.9388270246626591,-0.8657051842317098,0.09723337972546878,0,0,0,1
2.105191725337341,0.27847995576829015,0.18362512972546877,0,0,0,1
2.105191725337341,0.27847995576829015,0.18362512972546877,0,0,0,1
2.7526479253373406,0.1317398157682901,-0.06752580527453123,0,0,0,1
2.227080725337341,-0.1877388842317099,-0.5286107402745311,0,0,0,1
1.124615225337341,-0.7994175342317098,-0.7066952802745312,0,0,0,1
-0.3788714246626591,-1.04927238423171,-0.5398387802745311,0,0,0,1
-0.5286860346626591,0.36154844576829015,0.4291564797254688,0,0,0,1
-0.5286860346626591,0.36154844576829015,0.4291564797254688,0,0,0,1
2.4948239253373408,0.2249767957682901,0.19622974972546878,0,0,0,1
-1.160988274662659,-0.7787817842317099,0.21575572972546878,0,0,0,1
-1.160988274662659,-0.7787817842317099,0.21575572972546878,0,0,0,1
-1.160988274662659,-0.7787817842317099,0.21575572972546878,0,0,0,1
1.815018225337341,0.6009371457682902,-0.1305033652745312,0,0,0,1
1.815018225337341,0.6009371457682902,-0.1305033652745312,0,0,0,1
1.147932525337341,-1.36085258423171,-1.0011118802745311,0,0,0,1
1.147932525337341,-1.36085258423171,-1.0011118802745311,0,0,0,1
0.6893744653373409,-2.08673378423171,-0.6259101802745312,0,0,0,1
0.6893744653373409,-2.08673378423171,-0.6259101802745312,0,0,0,1
-0.07789085466265912,1.52818761576829,0.39895131972546877,0,0,0,1
1.304711825337341,1.20316431576829,0.2527126997254688,0,0,0,1
1.304711825337341,1.20316431576829,0.2527126997254688,0,0,0,1
1.234023625337341,0.1320783957682901,-0.48454243027453126,0,0,0,1
0.3122182053373409,-1.43082108423171,-0.6325760802745312,0,0,0,1
-0.1306490746626591,1.17708371576829,0.09672367372546876,0,0,0,1
0.007027165337340894,0.20295395576829012,0.18070075972546876,0,0,0,1
0.007027165337340894,0.20295395576829012,0.18070075972546876,0,0,0,1
0.007027165337340894,0.20295395576829012,0.18070075972546876,0,0,0,1
0.007027165337340894,0.20295395576829012,0.18070075972546876,0,0,0,1
0.2897257953373409,-0.9914660242317098,0.07767585972546877,0,0,0,1
-0.014369471662659106,1.08305321576829,-0.13609432027453122,0,0,0,1
-0.014369471662659106,1.08305321576829,-0.13609432027453122,0,0,0,1
-0.6045002746626591,-0.1974832242317099,-0.2640134402745312,0,0,0,1
-0.6045002746626591,-0.1974832242317099,-0.2640134402745312,0,0,0,1
-0.5901055146626591,-0.6886217842317098,0.17019047972546877,0,0,0,1
1.470078025337341,1.2042718157682901,0.5025011197254688,0,0,0,1
1.470078025337341,1.2042718157682901,0.5025011197254688,0,0,0,1
-1.022257274662659,-0.8942539542317098,0.3009819397254688,0,0,0,1
-1.022257274662659,-0.8942539542317098,0.3009819397254688,0,0,0,1
-0.7417330746626591,-0.7398206842317099,-0.021328696274531225,0,0,0,1
0.9366088253373409,0.5418001157682901,-0.023078175274531227,0,0,0,1
2.1108804253373408,0.8600904557682901,0.002841277725468774,0,0,0,1
1.442868725337341,0.2676223657682901,-0.2559405902745312,0,0,0,1
-0.3946471046626591,-0.7128289842317098,-0.14369837027453122,0,0,0,1
-0.3946471046626591,-0.7128289842317098,-0.14369837027453122,0,0,0,1
-1.614163874662659,-0.4527596642317099,0.5103190797254689,0,0,0,1
-1.614163874662659,-0.4527596642317099,0.5103190797254689,0,0,0,1
0.4448418753373409,1.03425511576829,0.3927863497254688,0,0,0,1
1.561611725337341,0.07496224576829014,-0.10610484027453122,0,0,0,1
1.293535725337341,-1.44369128423171,-0.3678841302745312,0,0,0,1
-1.090932374662659,-0.6228091542317099,-0.15571848027453122,0,0,0,1
-1.090932374662659,-0.6228091542317099,-0.15571848027453122,0,0,0,1
-1.090932374662659,-0.6228091542317099,-0.15571848027453122,0,0,0,1
0.6411586253373409,1.5592707157682901,-0.030135111274531227,0,0,0,1
1.583044525337341,1.31663351576829,-0.19038704027453124,0,0,0,1
1.072807825337341,0.1826230057682901,-0.19219557027453124,0,0,0,1
1.072807825337341,0.1826230057682901,-0.19219557027453124,0,0,0,1
0.2204156053373409,0.6776114157682901,0.22160561972546877,0,0,0,1
0.5925002253373409,-0.5068435842317098,-0.3535399802745312,0,0,0,1
0.5925002253373409,-0.5068435842317098,-0.3535399802745312,0,0,0,1
-0.3196329946626591,-1.89936358423171,-0.15007784027453122,0,0,0,1
-0.3196329946626591,-1.89936358423171,-0.15007784027453122,0,0,0,1
-0.8414997746626591,-2.2083653842317097,0.3057188997254688,0,0,0,1
1.197299525337341,0.4908580357682901,1.032106619725469,0,0,0,1
1.550417425337341,0.6951704757682902,0.10768930972546877,0,0,0,1
0.5724654253373409,-0.8503651842317098,-0.4262211602745312,0,0,0,1
-1.061310274662659,-1.6723877842317099,-0.6549387302745312,0,0,0,1
-1.061310274662659,-1.6723877842317099,-0.6549387302745312,0,0,0,1
2.664256625337341,1.12087181576829,0.17732515972546878,0,0,0,1
1.130653825337341,-0.6812171842317098,0.11006655372546877,0,0,0,1
1.130653825337341,-0.6812171842317098,0.11006655372546877,0,0,0,1
-0.6254305746626592,-0.39740788423170986,0.07644310472546877,0,0,0,1
-0.6254305746626592,-0.39740788423170986,0.07644310472546877,0,0,0,1
0.4889187953373409,0.6207247157682901,-0.5524825802745311,0,0,0,1
1.598606625337341,-1.05675358423171,-0.7350048102745311,0,0,0,1
1.598606625337341,-1.05675358423171,-0.7350048102745311,0,0,0,1
1.405973925337341,-2.0754687842317097,-0.7357728802745311,0,0,0,1
0.7176737953373409,0.11142552976829014,0.26386653972546875,0,0,0,1
0.4662137253373409,1.44449411576829,0.6836198897254688,0,0,0,1
-0.6100773746626591,1.43467941576829,0.5641693197254688,0,0,0,1
-1.620471474662659,0.2062579257682901,0.39044181972546876,0,0,0,1
-1.620471474662659,0.2062579257682901,0.39044181972546876,0,0,0,1
1.944665425337341,-0.25612066423170987,-0.07171449027453122,0,0,0,1
1.944665425337341,-0.25612066423170987,-0.07171449027453122,0,0,0,1
1.944665425337341,-0.25612066423170987,-0.07171449027453122,0,0,0,1
2.6424727253373406,0.8861168757682901,0.22405710972546877,0,0,0,1
1.056296825337341,0.9441411657682901,-0.031618038274531225,0,0,0,1
-0.7392725746626592,0.08605593076829013,-0.24538823027453122,0,0,0,1
-2.048846274662659,-0.42806148423170987,-0.7100001302745311,0,0,0,1
-1.680161974662659,-0.34849206423170986,-0.40128138027453125,0,0,0,1
-1.680161974662659,-0.34849206423170986,-0.40128138027453125,0,0,0,1
-0.35624837466265913,-0.08655652823170987,-0.14479667027453122,0,0,0,1
0.8407435553373409,-0.09792102423170987,0.24313529972546877,0,0,0,1
0.8407435553373409,-0.09792102423170987,0.24313529972546877,0,0,0,1
-1.650309074662659,-0.031020816231709866,-0.2536223802745312,0,0,0,1
-1.650309074662659,-0.031020816231709866,-0.2536223802745312,0,0,0,1
-1.965099774662659,1.74122951576829,0.09476260972546877,0,0,0,1
-0.021280749662659106,0.1457558157682901,-1.0017858802745312,0,0,0,1
-0.021280749662659106,0.1457558157682901,-1.0017858802745312,0,0,0,1
1.183909925337341,-2.00829738423171,-1.2077076802745312,0,0,0,1
-0.4846491746626591,-1.03891088423171,-0.6985691802745312,0,0,0,1
-0.4846491746626591,-1.03891088423171,-0.6985691802745312,0,0,0,1
-2.541398974662659,1.3042017157682901,0.27729006972546877,0,0,0,1
-1.898561474662659,0.8007089657682901,0.29355851972546876,0,0,0,1
-1.302392474662659,0.31515521576829014,0.13176459972546878,0,0,0,1
-1.302392474662659,0.31515521576829014,0.13176459972546878,0,0,0,1
2.2302165253373407,0.18221541576829012,-0.27334824027453125,0,0,0,1
-1.277302274662659,0.39365028576829014,-0.4774194402745312,0,0,0,1
-1.277302274662659,0.39365028576829014,-0.4774194402745312,0,0,0,1
-1.277302274662659,0.39365028576829014,-0.4774194402745312,0,0,0,1
-2.4073332746626592,-0.07977588923170988,0.2883779197254688,0,0,0,1
-2.4073332746626592,-0.07977588923170988,0.2883779197254688,0,0,0,1
-2.307920474662659,0.2434928457682901,0.31270977972546876,0,0,0,1
-2.307920474662659,0.2434928457682901,0.31270977972546876,0,0,0,1
-0.6989903246626591,-0.05714137423170987,0.9330119797254688,0,0,0,1
0.7687554253373409,-0.29961368423170986,0.8790302597254688,0,0,0,1
0.3894753653373409,-0.6949175442317098,-0.26215115027453123,0,0,0,1
0.3694596453373409,-0.9841888342317099,-0.32070446027453126,0,0,0,1
-3.014274074662659,1.01321081576829,-0.3884137002745312,0,0,0,1
-1.086596974662659,0.09157439576829013,0.30955454972546875,0,0,0,1
-1.086596974662659,0.09157439576829013,0.30955454972546875,0,0,0,1
-0.9009251446626592,0.9540207557682902,0.3974853397254688,0,0,0,1
-0.9009251446626592,0.9540207557682902,0.3974853397254688,0,0,0,1
0.22393562533734088,-0.6595533342317098,-0.5327830802745311,0,0,0,1
1.303664725337341,0.30420883576829016,-0.4976801602745312,0,0,0,1
1.303664725337341,0.30420883576829016,-0.4976801602745312,0,0,0,1
1.303664725337341,0.30420883576829016,-0.4976801602745312,0,0,0,1
0.5312657253373408,1.24942001576829,-0.6756296502745311,0,0,0,1
-2.923803274662659,-2.22012378423171,0.020152477725468774,0,0,0,1
-2.923803274662659,-2.22012378423171,0.020152477725468774,0,0,0,1
-2.553248874662659,-1.8462593842317099,0.5181330197254689,0,0,0,1
-0.6423077446626592,-0.25780413423170984,1.1013694197254689,0,0,0,1
2.2252746253373408,2.26346451576829,0.8708603697254689,0,0,0,1
1.937868625337341,1.80203061576829,-0.14205468027453122,0,0,0,1
0.33990909533734087,-0.09798992823170986,-0.8826135802745312,0,0,0,1
-1.786676874662659,-1.53794908423171,-1.4061574802745311,0,0,0,1
-2.730352274662659,-1.66977638423171,-1.196497680274531,0,0,0,1
-1.548363174662659,-0.47310842423170985,-0.31130242027453126,0,0,0,1
0.5069909253373409,0.8676776157682902,0.7374433197254688,0,0,0,1
0.5069909253373409,0.8676776157682902,0.7374433197254688,0,0,0,1
1.602990625337341,1.31400111576829,0.8919522197254688,0,0,0,1
1.844777625337341,0.32552366576829017,0.7414507597254688,0,0,0,1
-0.8857636246626591,-0.9665078842317099,0.5651472197254688,0,0,0,1
-2.005833574662659,-0.0045375862317098715,0.45204631972546877,0,0,0,1
-1.074580674662659,0.8654105157682901,-0.061205360274531224,0,0,0,1
-1.074580674662659,0.8654105157682901,-0.061205360274531224,0,0,0,1
2.193607725337341,-0.5812491842317099,-1.2174159802745312,0,0,0,1
