acc_x,acc_y,acc_z,gyro_x,gyro_y,gyro_z,label
-0.4494805146626591,0.13975735576829013,-0.3357476802745312,0,0,0,1
-0.4494805146626591,0.13975735576829013,-0.3357476802745312,0,0,0,1
-0.4494805146626591,0.13975735576829013,-0.3357476802745312,0,0,0,1
1.216634325337341,0.23865670576829012,-0.2731892802745312,0,0,0,1
0.6978488253373409,-0.5968697442317099,-0.08132932027453123,0,0,0,1
-0.3693594746626591,0.07432653576829013,0.5495995597254688,0,0,0,1
-0.3693594746626591,0.07432653576829013,0.5495995597254688,0,0,0,1
-1.023008774662659,1.02153671576829,-0.001915545774531225,0,0,0,1
-0.09167431466265911,0.30815341576829014,0.28683649972546876,0,0,0,1
0.09063007033734088,-0.7198081442317098,-0.4284400102745312,0,0,0,1
0.09063007033734088,-0.7198081442317098,-0.4284400102745312,0,0,0,1
0.9779792253373409,-0.06320649023170986,-0.07528999627453123,0,0,0,1
-1.231440974662659,0.06409360776829012,0.22918393972546877,0,0,0,1
-1.231440974662659,0.06409360776829012,0.22918393972546877,0,0,0,1
-1.231440974662659,0.06409360776829012,0.22918393972546877,0,0,0,1
-0.24068401466265912,-0.5830159842317099,0.6405278197254688,0,0,0,1
0.5142874853373409,0.05673301576829013,0.13111459972546877,0,0,0,1
0.5142874853373409,0.05673301576829013,0.13111459972546877,0,0,0,1
0.5420279653373409,0.6314714757682901,0.18797748972546877,0,0,0,1
0.8268428253373409,0.37863128576829014,-0.3968670802745312,0,0,0,1
-0.3733115046626591,-0.23083217423170987,-0.36420170027453125,0,0,0,1
-1.032870774662659,0.24616605576829012,-0.5116045802745312,0,0,0,1
0.06965114533734089,-0.27583481423170986,0.050410835725468776,0,0,0,1
0.06965114533734089,-0.27583481423170986,0.050410835725468776,0,0,0,1
0.06965114533734089,-0.27583481423170986,0.050410835725468776,0,0,0,1
0.1944089053373409,-0.31133834423170986,0.14141564972546877,0,0,0,1
0.1944089053373409,-0.31133834423170986,0.14141564972546877,0,0,0,1
0.1944089053373409,-0.31133834423170986,0.14141564972546877,0,0,0,1
-1.183529374662659,0.10808882576829013,-0.2747400102745312,0,0,0,1
-1.194748374662659,0.19924180576829012,0.028829125725468776,0,0,0,1
-1.194748374662659,0.19924180576829012,0.028829125725468776,0,0,0,1
-1.194748374662659,0.19924180576829012,0.028829125725468776,0,0,0,1
-0.9045405246626591,0.6852536157682901,-0.18130472027453123,0,0,0,1
0.1316056453373409,0.41641797576829015,-0.3122417602745312,0,0,0,1
0.1316056453373409,0.41641797576829015,-0.3122417602745312,0,0,0,1
1.666835325337341,-0.5181933442317098,-0.24327341027453123,0,0,0,1
1.352131425337341,-0.29027776423170987,-0.5545968102745312,0,0,0,1
-2.0817322746626594,-0.5669573842317098,0.27757998972546877,0,0,0,1
-1.190819274662659,-0.5180778842317099,0.11855500972546876,0,0,0,1
0.3147673753373409,0.25253531576829014,0.11734971972546876,0,0,0,1
2.3531757253373407,0.6135588157682902,-0.8847376802745311,0,0,0,1
1.369897425337341,-0.9381553842317099,-0.8327678202745312,0,0,0,1
1.369897425337341,-0.9381553842317099,-0.8327678202745312,0,0,0,1
-0.45586727466265914,-1.78854298423171,-1.0983997802745311,0,0,0,1
-1.768281474662659,-1.09441848423171,0.14091821972546878,0,0,0,1
1.385465125337341,0.6147032557682901,0.20695459972546876,0,0,0,1
1.385465125337341,0.6147032557682901,0.20695459972546876,0,0,0,1
1.385465125337341,0.6147032557682901,0.20695459972546876,0,0,0,1
0.8797860253373408,-1.1019284842317099,-0.8173504802745312,0,0,0,1
0.1331038653373409,-1.58827378423171,-0.7315893802745311,0,0,0,1
0.1331038653373409,-1.58827378423171,-0.7315893802745311,0,0,0,1
-1.259609674662659,-0.34731600423170983,-0.4486598102745312,0,0,0,1
-1.259609674662659,-0.34731600423170983,-0.4486598102745312,0,0,0,1
-2.030528074662659,1.01424681576829,0.07009517972546878,0,0,0,1
1.408557425337341,-0.10088681823170988,0.2982931397254688,0,0,0,1
0.9954381253373409,-0.45474002423170984,0.11929675972546877,0,0,0,1
0.9954381253373409,-0.45474002423170984,0.11929675972546877,0,0,0,1
-0.2534384546626591,-0.8897996842317099,0.018065182725468774,0,0,0,1
-0.2534384546626591,-0.8897996842317099,0.018065182725468774,0,0,0,1
-1.963293574662659,0.38287227576829014,0.3224262897254688,0,0,0,1
-1.963293574662659,0.38287227576829014,0.3224262897254688,0,0,0,1
1.488701325337341,1.00410131576829,-0.06687060027453122,0,0,0,1
-0.31501817466265913,-1.50645968423171,-0.8274562802745312,0,0,0,1
-0.31501817466265913,-1.50645968423171,-0.8274562802745312,0,0,0,1
0.04999591533734089,-1.25573108423171,0.013020722725468774,0,0,0,1
0.04999591533734089,-1.25573108423171,0.013020722725468774,0,0,0,1
0.04999591533734089,-1.25573108423171,0.013020722725468774,0,0,0,1
-0.5299324746626591,0.8605690157682901,0.8166535797254688,0,0,0,1
-0.029940112662659106,-0.29880474423170983,0.2808836997254688,0,0,0,1
0.1717267253373409,-1.60714478423171,0.2693230197254688,0,0,0,1
-0.6626362746626591,-0.5338158442317098,-0.34571031027453125,0,0,0,1
-0.6626362746626591,-0.5338158442317098,-0.34571031027453125,0,0,0,1
-0.6603417246626591,0.1619116157682901,-0.053089890274531225,0,0,0,1
0.6733412953373409,0.5114826157682901,-0.26121006027453125,0,0,0,1
-0.020101054662659105,-0.27337338423170987,-0.31305768027453124,0,0,0,1
-0.020101054662659105,-0.27337338423170987,-0.31305768027453124,0,0,0,1
-1.126826774662659,0.011019318768290128,-0.10790578027453122,0,0,0,1
-1.300838974662659,0.07466411176829013,0.8146604197254689,0,0,0,1
0.7382827253373409,-0.7093094842317098,0.9092306797254688,0,0,0,1
2.0910859253373406,-1.02799278423171,0.9064928197254688,0,0,0,1
2.034456725337341,0.8333425657682901,-0.07135442027453123,0,0,0,1
2.034456725337341,0.8333425657682901,-0.07135442027453123,0,0,0,1
-2.908595074662659,0.13034625576829012,-0.6294799202745311,0,0,0,1
-1.597809274662659,-0.7610332842317099,-0.15082780027453124,0,0,0,1
0.3577408953373409,-1.18839248423171,-0.2635750502745312,0,0,0,1
0.3577408953373409,-1.18839248423171,-0.2635750502745312,0,0,0,1
1.643497925337341,0.4400794357682901,-0.025599213274531227,0,0,0,1
2.8341241253373406,0.9408601157682901,0.3750823397254688,0,0,0,1
3.3500199253373406,0.37219803576829014,-0.08075646027453123,0,0,0,1
1.461419625337341,-0.21400846423170988,-0.7234751302745311,0,0,0,1
-1.141010774662659,0.008063681168290128,-0.5558424302745312,0,0,0,1
-2.950110374662659,-0.9230908842317098,0.19186455972546876,0,0,0,1
-2.950110374662659,-0.9230908842317098,0.19186455972546876,0,0,0,1
-2.528784274662659,-0.5113219842317098,0.15114616972546877,0,0,0,1
1.198910225337341,1.42264781576829,0.5128617597254689,0,0,0,1
3.3038097253373406,0.47877566576829017,-0.9659014802745312,0,0,0,1
3.3038097253373406,0.47877566576829017,-0.9659014802745312,0,0,0,1
2.5645633253373408,-0.8352441842317099,-1.3910546802745312,0,0,0,1
2.5645633253373408,-0.8352441842317099,-1.3910546802745312,0,0,0,1
2.5645633253373408,-0.8352441842317099,-1.3910546802745312,0,0,0,1
-2.320103174662659,-0.4683210642317099,-0.7640122802745312,0,0,0,1
-0.9114184246626591,1.66087131576829,0.6804032597254688,0,0,0,1
2.9260468253373406,-0.9604952142317098,-0.49009541027453124,0,0,0,1
-1.177091074662659,-0.7771064442317098,-0.41065243027453124,0,0,0,1
-1.177091074662659,-0.7771064442317098,-0.41065243027453124,0,0,0,1
-3.210615574662659,-0.11757433423170988,-0.14374685027453124,0,0,0,1
-3.210615574662659,-0.11757433423170988,-0.14374685027453124,0,0,0,1
-1.913001974662659,0.5941450757682901,0.3918680797254688,0,0,0,1
0.23049785533734088,1.49742991576829,0.7126040197254688,0,0,0,1
0.23049785533734088,1.49742991576829,0.7126040197254688,0,0,0,1
2.245437125337341,-2.06057328423171,-1.2564216802745312,0,0,0,1
1.024866625337341,-2.3199480842317097,-0.8450638802745312,0,0,0,1
-1.487518774662659,-0.24266962423170987,0.059013809725468776,0,0,0,1
-2.3377251746626593,1.95211711576829,0.27160676972546877,0,0,0,1
-2.3377251746626593,1.95211711576829,0.27160676972546877,0,0,0,1
-0.6222405246626591,1.8021899157682901,0.9588198197254688,0,0,0,1
-0.6222405246626591,1.8021899157682901,0.9588198197254688,0,0,0,1
-0.6222405246626591,1.8021899157682901,0.9588198197254688,0,0,0,1
0.6488795253373408,-1.03046538423171,-1.044778580274531,0,0,0,1
0.3189368453373409,-0.25753400423170986,-0.10024911027453123,0,0,0,1
-1.330960774662659,0.7040802157682902,0.6245165797254688,0,0,0,1
-0.8938555746626591,0.7993838157682901,0.24862511972546875,0,0,0,1
-0.8938555746626591,0.7993838157682901,0.24862511972546875,0,0,0,1
-0.8938555746626591,0.7993838157682901,0.24862511972546875,0,0,0,1
-0.8938555746626591,0.7993838157682901,0.24862511972546875,0,0,0,1
-0.8938555746626591,0.7993838157682901,0.24862511972546875,0,0,0,1
0.3002867853373409,-0.13095491423170988,0.038905679725468774,0,0,0,1
0.3002867853373409,-0.13095491423170988,0.038905679725468774,0,0,0,1
-0.2448239146626591,-0.1418994942317099,-0.06539991627453122,0,0,0,1
-1.099281774662659,1.59224251576829,0.056550083725468776,0,0,0,1
-1.099281774662659,1.59224251576829,0.056550083725468776,0,0,0,1
0.7745213653373408,0.04120549176829013,-0.1271096202745312,0,0,0,1
1.037204325337341,-1.4528847842317099,-0.21858555027453122,0,0,0,1
0.5391545253373409,-0.36338214423170984,-0.27365515027453124,0,0,0,1
0.3870883253373409,0.6683037157682902,0.23313119972546878,0,0,0,1
-0.8786730746626591,0.8167099557682902,0.36743271972546876,0,0,0,1
-0.8786730746626591,0.8167099557682902,0.36743271972546876,0,0,0,1
-1.867983274662659,0.0009865832682901285,0.001576362725468774,0,0,0,1
-1.867983274662659,0.0009865832682901285,0.001576362725468774,0,0,0,1
1.748127525337341,-0.9534815842317098,-0.18251178027453124,0,0,0,1
1.748127525337341,-0.9534815842317098,-0.18251178027453124,0,0,0,1
2.020584625337341,0.03590212376829013,-1.1931121802745313,0,0,0,1
-0.2694229946626591,0.7688487157682902,-0.14536014027453123,0,0,0,1
-1.332940574662659,1.31234361576829,0.25994383972546875,0,0,0,1
-1.332940574662659,1.31234361576829,0.25994383972546875,0,0,0,1
-1.684497374662659,1.46578091576829,-0.08799398027453123,0,0,0,1
1.783366725337341,-1.29132378423171,0.031479923725468775,0,0,0,1
1.783366725337341,-1.29132378423171,0.031479923725468775,0,0,0,1
1.783366725337341,-1.29132378423171,0.031479923725468775,0,0,0,1
1.156330625337341,-0.8437202842317099,-0.015527309274531224,0,0,0,1
0.2721409953373409,-0.11463711423170987,0.05045935372546878,0,0,0,1
0.2721409953373409,-0.11463711423170987,0.05045935372546878,0,0,0,1
-2.4072126746626594,0.6001291457682901,0.18172541972546877,0,0,0,1
-2.4072126746626594,0.6001291457682901,0.18172541972546877,0,0,0,1
-2.4072126746626594,0.6001291457682901,0.18172541972546877,0,0,0,1
1.367698225337341,-1.52145078423171,-0.2681419302745312,0,0,0,1
2.3621287253373406,-0.46205292423170985,-0.4389474102745312,0,0,0,1
2.1609664253373406,0.4496962957682901,0.06689550972546877,0,0,0,1
0.6709418253373409,0.39618389576829016,0.5532241697254688,0,0,0,1
-1.272816174662659,-0.28033328423170983,0.026446012725468777,0,0,0,1
-1.272816174662659,-0.28033328423170983,0.026446012725468777,0,0,0,1
-2.1494650746626593,-0.6143796242317099,-0.10368490027453123,0,0,0,1
-2.1494650746626593,-0.6143796242317099,-0.10368490027453123,0,0,0,1
0.1137280653373409,-0.5790447442317098,0.21845970972546877,0,0,0,1
1.003811425337341,0.11842550576829013,0.3578027197254688,0,0,0,1
2.0866666253373407,0.6396267557682901,0.030401466725468774,0,0,0,1
2.0866666253373407,0.6396267557682901,0.030401466725468774,0,0,0,1
2.046221225337341,-0.09472507423170987,-0.7649101302745311,0,0,0,1
2.046221225337341,-0.09472507423170987,-0.7649101302745311,0,0,0,1
2.046221225337341,-0.09472507423170987,-0.7649101302745311,0,0,0,1
-1.019048174662659,-0.7613214842317099,0.6646340797254688,0,0,0,1
-1.019048174662659,-0.7613214842317099,0.6646340797254688,0,0,0,1
-1.019048174662659,-0.7613214842317099,0.6646340797254688,0,0,0,1
-0.3888459046626591,-0.37498371423170984,0.6868020597254688,0,0,0,1
-0.3888459046626591,-0.37498371423170984,0.6868020597254688,0,0,0,1
0.9224744253373409,-0.33822578423170985,0.30514197972546875,0,0,0,1
1.795326725337341,-0.6674914142317099,-0.07442841027453123,0,0,0,1
0.9561953753373409,-1.45275528423171,-0.6059820802745312,0,0,0,1
0.019889370337340895,-0.13450880423170988,-0.7187591802745312,0,0,0,1
-0.1762165846626591,2.7678566157682902,-0.6796382802745312,0,0,0,1
-0.06961296466265911,1.08093571576829,-0.5254794802745312,0,0,0,1
0.0925011793373409,-1.78133668423171,-1.0898791802745311,0,0,0,1
0.0925011793373409,-1.78133668423171,-1.0898791802745311,0,0,0,1
0.20131255533734088,-2.3585970842317097,-0.8096341802745312,0,0,0,1
0.1854558153373409,-0.8241090842317098,0.09215741972546877,0,0,0,1
0.7472253253373409,1.13802021576829,0.6416079697254689,0,0,0,1
0.9159598253373409,0.9169323657682902,0.6767629197254689,0,0,0,1
0.9159598253373409,0.9169323657682902,0.6767629197254689,0,0,0,1
-0.38386295466265913,-0.5543846342317098,0.11421843972546877,0,0,0,1
-0.38386295466265913,-0.5543846342317098,0.11421843972546877,0,0,0,1
-1.380378274662659,0.13300989576829012,0.06224271472546878,0,0,0,1
-1.380378274662659,0.13300989576829012,0.06224271472546878,0,0,0,1
-1.520570274662659,-0.020036038231709873,0.10954924972546877,0,0,0,1
1.063623925337341,-0.36808810423170985,-0.06470024727453122,0,0,0,1
1.063623925337341,-0.36808810423170985,-0.06470024727453122,0,0,0,1
-0.30633781466265914,-0.1790841642317099,-0.31655905027453124,0,0,0,1
-0.30633781466265914,-0.1790841642317099,-0.31655905027453124,0,0,0,1
-0.30633781466265914,-0.1790841642317099,-0.31655905027453124,0,0,0,1
-0.8451342446626591,-0.8948771842317098,-0.032003821274531226,0,0,0,1
-0.8451342446626591,-0.8948771842317098,-0.032003821274531226,0,0,0,1
-0.2726874146626591,0.6615425157682902,-0.21179458027453124,0,0,0,1
0.6778302253373409,-0.2486513342317099,0.25164651972546875,0,0,0,1
0.6286864253373409,0.08528428076829013,0.18757590972546878,0,0,0,1
0.6286864253373409,0.08528428076829013,0.18757590972546878,0,0,0,1
0.005850331337340894,-0.12120420923170987,0.15359004972546877,0,0,0,1
0.40443852533734087,-0.6191879342317098,0.002482948725468775,0,0,0,1
0.40443852533734087,-0.6191879342317098,0.002482948725468775,0,0,0,1
