acc_x,acc_y,acc_z,gyro_x,gyro_y,gyro_z,label
0.1616645053373409,0.44275220576829016,-0.4675872002745312,0,0,0,1
1.204077225337341,0.6944619557682902,-0.6893636302745312,0,0,0,1
0.6795687853373409,0.29652144576829015,-1.042391480274531,0,0,0,1
1.391739425337341,-0.5210455442317099,1.283583719725469,0,0,0,1
1.391739425337341,-0.5210455442317099,1.283583719725469,0,0,0,1
-0.0340819196626591,-0.01299723623170987,-0.24878313027453122,0,0,0,1
0.022465245337340897,0.7648667157682901,0.5430780197254689,0,0,0,1
0.022465245337340897,0.7648667157682901,0.5430780197254689,0,0,0,1
-0.11870621066265911,0.2161479357682901,0.26379757972546874,0,0,0,1
1.055488125337341,-0.05055245423170987,0.4914501597254688,0,0,0,1
1.055488125337341,-0.05055245423170987,0.4914501597254688,0,0,0,1
0.7907567253373409,-0.1670941542317099,-0.12097332027453123,0,0,0,1
-0.11431549466265911,-0.09937845423170986,-1.072201980274531,0,0,0,1
-0.09396408466265911,0.2641748957682901,0.5477314197254688,0,0,0,1
-0.6853060746626591,0.5542494157682901,-0.31423846027453123,0,0,0,1
-0.1369156746626591,0.8110982157682901,0.2838735897254688,0,0,0,1
0.3120045853373409,0.3792563857682901,-0.12225342027453123,0,0,0,1
1.381877425337341,-0.6619121242317099,-0.34743053027453125,0,0,0,1
1.381877425337341,-0.6619121242317099,-0.34743053027453125,0,0,0,1
1.481046225337341,-0.5125839842317098,-0.5829385202745312,0,0,0,1
-0.5371622746626591,0.28119673576829013,0.8631996797254688,0,0,0,1
-0.5371622746626591,0.28119673576829013,0.8631996797254688,0,0,0,1
-0.4198231546626591,0.32076506576829017,0.8939671197254688,0,0,0,1
1.513268925337341,-0.2109403142317099,-0.16008836027453122,0,0,0,1
1.990681225337341,-0.35609696423170983,-0.20603997027453122,0,0,0,1
1.541604525337341,-0.1398244442317099,-0.3952432602745312,0,0,0,1
-0.3855738446626591,0.5849964757682902,0.6729833797254688,0,0,0,1
1.104379225337341,-0.5353534842317098,0.018107241725468775,0,0,0,1
1.104379225337341,-0.5353534842317098,0.018107241725468775,0,0,0,1
2.063037425337341,-0.7486163242317099,0.05722520372546878,0,0,0,1
2.063037425337341,-0.7486163242317099,0.05722520372546878,0,0,0,1
0.07943488533734089,0.5183942457682902,-0.11151926027453123,0,0,0,1
-0.8794102746626591,0.9904351157682901,0.6713098597254689,0,0,0,1
-0.9175734346626591,0.5442845157682902,0.48868595972546874,0,0,0,1
0.008777157337340896,-0.2631319542317099,-0.48260006027453123,0,0,0,1
0.4872727553373409,-0.4471844542317099,-0.49776140027453125,0,0,0,1
-1.335790174662659,0.29075573576829017,0.44089371972546876,0,0,0,1
0.8931489253373409,-0.4141245042317099,-0.24921860027453124,0,0,0,1
1.129869925337341,0.1835824557682901,-1.1200556802745312,0,0,0,1
-0.9685187146626592,-0.34344060423170986,0.9391354597254689,0,0,0,1
1.086854425337341,-0.6289412842317098,-0.6388807802745312,0,0,0,1
1.602693125337341,-0.35422008423170986,-0.24422795027453123,0,0,0,1
-0.6346506746626591,0.03775973176829013,0.22697091972546876,0,0,0,1
-1.853182274662659,0.1352901357682901,0.5715793697254689,0,0,0,1
-1.704584574662659,-0.28523920423170984,0.5935708197254689,0,0,0,1
1.090757825337341,-0.5969857342317099,0.11629287972546877,0,0,0,1
1.632996125337341,-0.28325296423170987,-0.9735510802745312,0,0,0,1
1.632996125337341,-0.28325296423170987,-0.9735510802745312,0,0,0,1
-1.263832574662659,0.34951681576829013,0.03161611972546878,0,0,0,1
-1.263832574662659,0.34951681576829013,0.03161611972546878,0,0,0,1
-0.5873570246626592,-0.8666560842317098,0.9195235697254688,0,0,0,1
-0.5873570246626592,-0.8666560842317098,0.9195235697254688,0,0,0,1
1.487304225337341,-0.4832427342317099,-0.6946774802745311,0,0,0,1
1.221482725337341,0.4511777357682901,-0.37330908027453125,0,0,0,1
-0.11806534466265911,0.28633468576829013,-0.14194422027453124,0,0,0,1
-0.9966625746626591,-0.2142507442317099,0.22686807972546877,0,0,0,1
-0.3893561246626591,-0.5580296842317098,1.1339385197254688,0,0,0,1
-0.3893561246626591,-0.5580296842317098,1.1339385197254688,0,0,0,1
2.322221325337341,-0.5031760842317099,-0.5508330202745312,0,0,0,1
2.2707677253373406,0.1487838157682901,-0.6138783802745311,0,0,0,1
2.2707677253373406,0.1487838157682901,-0.6138783802745311,0,0,0,1
-0.9637846746626592,-0.46563024423170984,1.2725643197254688,0,0,0,1
-0.9637846746626592,-0.46563024423170984,1.2725643197254688,0,0,0,1
0.1652693953373409,-0.7652172842317099,1.1634626197254687,0,0,0,1
2.2388453253373406,-0.5000617842317099,-1.0070652802745312,0,0,0,1
2.003024625337341,0.28180171576829016,-0.7528952802745311,0,0,0,1
0.6107239853373408,0.9802103857682901,-0.4809558102745312,0,0,0,1
0.6107239853373408,0.9802103857682901,-0.4809558102745312,0,0,0,1
-0.3074259646626591,0.1527413357682901,1.2850770197254688,0,0,0,1
-0.4666266246626591,-0.6073856142317099,0.13931837972546876,0,0,0,1
0.6670356253373408,-0.6062156842317099,-0.24353296027453122,0,0,0,1
1.991038825337341,-0.15298117423170987,-0.39635912027453124,0,0,0,1
0.07911159533734088,0.7422085557682901,-1.3550790802745312,0,0,0,1
-0.4357743146626591,0.5903463157682901,0.19936631972546878,0,0,0,1
-0.4357743146626591,0.5903463157682901,0.19936631972546878,0,0,0,1
-0.8510956746626591,-0.46402804423170985,0.27190491972546876,0,0,0,1
-0.0837092246626591,-0.7674831842317098,-0.5773545802745311,0,0,0,1
1.202064025337341,-0.5705071842317099,-0.32237911027453126,0,0,0,1
1.497838525337341,0.030611607768290132,-0.34542620027453125,0,0,0,1
-0.1782049946626591,0.37089367576829013,-0.8890508802745312,0,0,0,1
-0.1782049946626591,0.37089367576829013,-0.8890508802745312,0,0,0,1
-0.6726155146626591,-0.13239839423170988,0.014726365725468774,0,0,0,1
-0.5839018746626591,-0.44228648423170985,0.15647583972546877,0,0,0,1
0.3235755253373409,-0.08613231423170987,0.10534010972546877,0,0,0,1
0.3235755253373409,-0.08613231423170987,0.10534010972546877,0,0,0,1
0.6971917253373409,0.30068587576829015,-0.47383690027453124,0,0,0,1
0.39191772533734087,-0.16134802423170988,-0.018573267274531225,0,0,0,1
-0.4555640046626591,-0.10010678423170986,0.44239353972546874,0,0,0,1
-0.5524534746626591,0.6765688157682902,-0.33993348027453124,0,0,0,1
-0.5524534746626591,0.6765688157682902,-0.33993348027453124,0,0,0,1
0.13461543533734088,0.34177191576829014,-0.03998722327453122,0,0,0,1
0.13461543533734088,0.34177191576829014,-0.03998722327453122,0,0,0,1
0.06557800033734089,-0.46574948423170986,-0.06635851527453122,0,0,0,1
-0.9302811746626591,0.38124991576829015,-0.08334297027453123,0,0,0,1
-0.9302687746626591,0.7325902157682902,-0.24524385027453122,0,0,0,1
-0.2179980146626591,0.5481455557682902,0.43074581972546877,0,0,0,1
0.1759362353373409,-0.12174401823170987,-0.025347286274531228,0,0,0,1
0.6249633253373409,-0.7410180842317099,-0.45206288027453123,0,0,0,1
1.050111325337341,-0.6449571842317099,0.24738069972546878,0,0,0,1
1.050111325337341,-0.6449571842317099,0.24738069972546878,0,0,0,1
-0.9237341746626591,0.7199228157682901,0.4171276397254688,0,0,0,1
-0.6565165346626591,0.3049368157682901,0.7897702697254688,0,0,0,1
-0.3895850046626591,-0.45636378423170987,-0.4617121802745312,0,0,0,1
0.8902306753373409,-0.8703531842317098,-0.11946291627453123,0,0,0,1
0.4214844853373409,-0.26142431423170986,-0.39776430027453125,0,0,0,1
-0.22852180466265912,0.27243648576829016,0.018490685725468775,0,0,0,1
-0.09436462466265912,0.6307937157682901,0.6475034597254689,0,0,0,1
-0.28093574466265914,0.16791872576829012,-0.6728934802745312,0,0,0,1
0.5439315253373409,-0.41327518423170984,-0.43921626027453126,0,0,0,1
0.5439315253373409,-0.41327518423170984,-0.43921626027453126,0,0,0,1
-0.1893496346626591,-0.1365414942317099,-0.05034027427453122,0,0,0,1
-0.3520588746626591,0.19542019576829012,0.5668628197254688,0,0,0,1
0.6918521253373409,0.27357046576829014,-0.27861128027453125,0,0,0,1
0.6776910253373409,-0.48100815423170984,0.19101406972546878,0,0,0,1
-0.4003748746626591,-0.9339637842317099,0.5937046697254689,0,0,0,1
0.6859231253373409,0.6335982157682901,0.13943059972546876,0,0,0,1
0.8391490253373409,0.7108802157682902,-1.1352590802745313,0,0,0,1
0.8785758253373409,0.04137181076829013,-1.1087311802745312,0,0,0,1
0.8785758253373409,0.04137181076829013,-1.1087311802745312,0,0,0,1
-0.4436306746626591,-0.1387232042317099,0.48404891972546876,0,0,0,1
-0.7669367746626591,0.5039644157682901,-0.5232401202745312,0,0,0,1
-0.7669367746626591,0.5039644157682901,-0.5232401202745312,0,0,0,1
1.202653425337341,-0.9343365242317099,-0.004659304074531225,0,0,0,1
0.4300484853373409,-0.6891628342317099,0.3014431197254688,0,0,0,1
0.4300484853373409,-0.6891628342317099,0.3014431197254688,0,0,0,1
0.4300484853373409,-0.6891628342317099,0.3014431197254688,0,0,0,1
0.4363331953373409,0.2567722157682901,0.5610024197254688,0,0,0,1
0.3714995553373409,0.7590872157682902,-0.6788737502745312,0,0,0,1
0.3714995553373409,0.7590872157682902,-0.6788737502745312,0,0,0,1
0.33836986533734087,-1.1140984842317099,-0.6459312802745312,0,0,0,1
0.09102298533734089,-1.08779938423171,0.6754535697254688,0,0,0,1
0.09102298533734089,-1.08779938423171,0.6754535697254688,0,0,0,1
0.5706315253373409,0.47925261576829015,-1.163551580274531,0,0,0,1
0.5706315253373409,0.47925261576829015,-1.163551580274531,0,0,0,1
0.9417519753373409,0.05500252876829013,-0.9563503802745311,0,0,0,1
0.8857979953373409,-0.9548314842317098,0.7771311697254688,0,0,0,1
0.8857979953373409,-0.9548314842317098,0.7771311697254688,0,0,0,1
-0.010885699362659106,0.19301399576829012,-0.10625798027453123,0,0,0,1
0.2329564253373409,0.6806450157682902,-0.8886299802745312,0,0,0,1
0.2329564253373409,0.6806450157682902,-0.8886299802745312,0,0,0,1
1.743301925337341,-0.6796695842317099,0.09985495972546878,0,0,0,1
0.2328686853373409,-0.11254454823170987,0.5469317697254689,0,0,0,1
0.2328686853373409,-0.11254454823170987,0.5469317697254689,0,0,0,1
-1.089458974662659,0.7737639757682901,0.015575086725468774,0,0,0,1
0.8213753853373409,0.15196070576829013,-0.8192805402745311,0,0,0,1
0.8213753853373409,0.15196070576829013,-0.8192805402745311,0,0,0,1
0.8213753853373409,0.15196070576829013,-0.8192805402745311,0,0,0,1
0.06069804533734089,0.05254607276829013,-0.7363988802745312,0,0,0,1
0.06069804533734089,0.05254607276829013,-0.7363988802745312,0,0,0,1
0.06069804533734089,0.05254607276829013,-0.7363988802745312,0,0,0,1
-0.8113102746626591,0.16839424576829012,-0.43481013027453125,0,0,0,1
-0.2753462746626591,-0.12000827423170987,0.21720941972546878,0,0,0,1
0.6955332953373409,-0.10624570823170987,-0.26865861027453125,0,0,0,1
0.9661965253373409,0.02515684376829013,-1.1202736802745312,0,0,0,1
-0.045716744662659105,0.6802653157682902,-0.14579213027453122,0,0,0,1
-0.045716744662659105,0.6802653157682902,-0.14579213027453122,0,0,0,1
-1.080396174662659,0.27579458576829013,-0.7587772802745312,0,0,0,1
-0.7084479146626591,-0.11944012023170987,0.7750122197254689,0,0,0,1
-0.8928131746626591,-0.32839621423170984,-0.5925520802745312,0,0,0,1
-0.8928131746626591,-0.32839621423170984,-0.5925520802745312,0,0,0,1
