acc_x,acc_y,acc_z,gyro_x,gyro_y,gyro_z,label
-0.31515453466265914,0.8791638157682902,1.6782499197254688,0,0,0,1
3.279157225337341,0.21238914576829013,0.6475344597254689,0,0,0,1
3.279157225337341,0.21238914576829013,0.6475344597254689,0,0,0,1
-0.4733519346626591,-0.28524560423170986,-0.28079912027453124,0,0,0,1
-0.43933151466265913,0.47657961576829017,-0.36371998027453123,0,0,0,1
-0.43933151466265913,0.47657961576829017,-0.36371998027453123,0,0,0,1
-0.43933151466265913,0.47657961576829017,-0.36371998027453123,0,0,0,1
1.264401925337341,1.11121141576829,0.35842236972546876,0,0,0,1
2.355983225337341,0.01732103876829013,0.7464630197254688,0,0,0,1
1.399745525337341,-0.7164619842317098,0.9396673197254688,0,0,0,1
0.5601391953373409,0.11531584576829013,1.160044419725469,0,0,0,1
0.2535405253373409,1.27924101576829,0.8338485597254688,0,0,0,1
-0.4081101246626591,1.97169951576829,0.32965108972546875,0,0,0,1
-0.4081101246626591,1.97169951576829,0.32965108972546875,0,0,0,1
-0.07782600466265911,1.37515751576829,-0.27534328027453125,0,0,0,1
0.8195452853373408,-0.17983528423170989,-0.8238778402745311,0,0,0,1
0.7073369253373409,-0.03391083723170987,-1.0460364802745312,0,0,0,1
1.090833225337341,0.08105409576829013,-0.5699510802745311,0,0,0,1
0.6324610853373409,-0.06189393423170987,-0.11342189027453123,0,0,0,1
-1.165014774662659,0.07567940976829013,0.4991822197254688,0,0,0,1
-2.3353008746626593,0.5532788157682902,0.8485445697254689,0,0,0,1
-0.016024096662659106,0.7849464557682901,1.0521972197254688,0,0,0,1
-0.016024096662659106,0.7849464557682901,1.0521972197254688,0,0,0,1
0.8526301253373408,-0.0025278592317098713,-0.6304952202745312,0,0,0,1
1.502751825337341,-0.19545691423170988,-0.8677216802745312,0,0,0,1
0.7467522753373409,0.7552460157682901,-0.6085095102745312,0,0,0,1
-1.108149974662659,2.0608629157682903,-0.6533038802745311,0,0,0,1
0.2245574153373409,0.47152056576829016,-0.5804372802745311,0,0,0,1
0.2101159253373409,-0.21582691423170988,-0.31047878027453124,0,0,0,1
0.2101159253373409,-0.21582691423170988,-0.31047878027453124,0,0,0,1
0.2101159253373409,-0.21582691423170988,-0.31047878027453124,0,0,0,1
-0.0674147446626591,0.3489682157682901,0.6664021897254688,0,0,0,1
0.33127547533734086,0.5232540157682901,0.16837497972546878,0,0,0,1
0.33127547533734086,0.5232540157682901,0.16837497972546878,0,0,0,1
0.9001298253373409,0.5746425557682902,0.005950300725468775,0,0,0,1
0.9001298253373409,0.5746425557682902,0.005950300725468775,0,0,0,1
-1.346453174662659,1.06549861576829,-0.13510123027453122,0,0,0,1
-1.346453174662659,1.06549861576829,-0.13510123027453122,0,0,0,1
-0.2844023546626591,0.19031498576829012,-0.028894813274531226,0,0,0,1
0.6652884653373409,-0.3610633442317099,0.13158043972546876,0,0,0,1
0.2016616053373409,0.36541791576829014,0.44725378972546875,0,0,0,1
0.2016616053373409,0.36541791576829014,0.44725378972546875,0,0,0,1
0.2860465253373409,0.47443904576829016,0.7228289497254689,0,0,0,1
-0.09532020866265911,0.7303042157682902,0.9682208197254688,0,0,0,1
-0.6148657746626591,0.7657341157682901,0.8297730197254688,0,0,0,1
-0.0025334197626591054,0.37170531576829013,0.39113041972546875,0,0,0,1
1.031794125337341,-0.26368434423170983,0.09188672972546877,0,0,0,1
1.154173425337341,-0.42481104423170984,-0.10726276027453123,0,0,0,1
0.5226044853373409,-0.1688772242317099,-0.13717976027453124,0,0,0,1
-0.5435786046626591,0.9547360157682901,0.5391027597254688,0,0,0,1
-0.5435786046626591,0.9547360157682901,0.5391027597254688,0,0,0,1
-0.17865513466265912,1.01981681576829,0.5030015197254688,0,0,0,1
-0.17865513466265912,1.01981681576829,0.5030015197254688,0,0,0,1
1.577384525337341,-0.5763389842317098,-0.44240013027453123,0,0,0,1
-1.489188674662659,1.35561851576829,-0.16552094027453124,0,0,0,1
-1.489188674662659,1.35561851576829,-0.16552094027453124,0,0,0,1
-0.8821539746626591,1.06876251576829,-0.018815787274531225,0,0,0,1
0.4045605853373409,0.16347550576829012,-0.17438868027453122,0,0,0,1
1.667746125337341,-0.5013938842317098,-0.5078595802745312,0,0,0,1
1.174397925337341,-0.5729455142317098,-0.7518244102745312,0,0,0,1
-0.7848562746626591,0.27915735576829015,-0.4079326802745312,0,0,0,1
-0.7848562746626591,0.27915735576829015,-0.4079326802745312,0,0,0,1
-0.7372431746626591,0.8893511457682901,-0.22994628027453123,0,0,0,1
1.677062525337341,0.21616457576829012,-0.8983874802745312,0,0,0,1
-1.194629174662659,0.6485967857682902,-0.40489898027453125,0,0,0,1
-1.194629174662659,0.6485967857682902,-0.40489898027453125,0,0,0,1
0.10991336533734089,0.02000631776829013,-0.5963725802745312,0,0,0,1
0.5700593253373409,-0.37533940423170986,-0.9050562802745312,0,0,0,1
1.160360825337341,-0.5514941842317098,-0.9312755802745312,0,0,0,1
1.160360825337341,-0.5514941842317098,-0.9312755802745312,0,0,0,1
1.013556025337341,-0.32991800423170986,-0.7398352802745312,0,0,0,1
-0.7880282246626591,0.8102559657682902,-0.40917478027453125,0,0,0,1
-0.3440680346626591,0.5395852557682902,-0.24367735027453122,0,0,0,1
-0.3440680346626591,0.5395852557682902,-0.24367735027453122,0,0,0,1
0.3124709253373409,0.39114471576829013,-0.28836170027453123,0,0,0,1
2.0563846253373406,0.9406301557682901,-0.22512749027453122,0,0,0,1
1.745420025337341,0.8883460157682902,-0.3238789802745312,0,0,0,1
1.745420025337341,0.8883460157682902,-0.3238789802745312,0,0,0,1
0.020617024337340896,0.5736775157682902,-0.3881518002745312,0,0,0,1
-1.434527874662659,0.10430051576829014,-0.2508400402745312,0,0,0,1
-1.551933774662659,0.1947418657682901,-0.005035133674531225,0,0,0,1
2.563124225337341,0.9220586157682902,0.003830818725468774,0,0,0,1
2.563124225337341,0.9220586157682902,0.003830818725468774,0,0,0,1
2.8257480253373406,0.37565519576829015,-0.5868132402745312,0,0,0,1
2.8262334253373407,0.35809851576829016,-0.5778947202745311,0,0,0,1
0.8121028253373409,0.5077547657682902,-0.5147534802745312,0,0,0,1
0.8121028253373409,0.5077547657682902,-0.5147534802745312,0,0,0,1
-1.815209374662659,1.29112121576829,-0.2556009602745312,0,0,0,1
-1.775042474662659,1.2952000157682901,-0.0009399965745312249,0,0,0,1
-0.6323647346626591,0.6558502457682901,-0.013213248574531225,0,0,0,1
2.361259925337341,-0.42246375423170984,-0.33879426027453124,0,0,0,1
2.361259925337341,-0.42246375423170984,-0.33879426027453124,0,0,0,1
2.374634325337341,-0.35133252423170985,-0.5354262302745312,0,0,0,1
2.374634325337341,-0.35133252423170985,-0.5354262302745312,0,0,0,1
2.374634325337341,-0.35133252423170985,-0.5354262302745312,0,0,0,1
-1.857036574662659,0.1870749757682901,-0.26226398027453124,0,0,0,1
-1.857036574662659,0.1870749757682901,-0.26226398027453124,0,0,0,1
-1.006361474662659,0.04973508576829013,-0.39140180027453125,0,0,0,1
0.4156861453373409,-0.07214913923170987,-0.6345886302745312,0,0,0,1
0.4156861453373409,-0.07214913923170987,-0.6345886302745312,0,0,0,1
1.218848725337341,-0.30835573423170987,-0.7874095202745311,0,0,0,1
-1.323557374662659,0.5466779657682902,-0.41022456027453125,0,0,0,1
-1.707662074662659,1.0145383157682901,-0.17223475027453122,0,0,0,1
-1.707662074662659,1.0145383157682901,-0.17223475027453122,0,0,0,1
0.6167464253373409,0.32148619576829013,-0.6259815402745311,0,0,0,1
1.509744225337341,-0.36855385423170983,-1.1623370802745312,0,0,0,1
1.651328625337341,-0.7604059442317098,-1.3633254802745312,0,0,0,1
0.7231726853373409,-0.32030318423170984,-1.1704303802745313,0,0,0,1
-1.301144074662659,0.48641831576829014,-0.8703595802745312,0,0,0,1
-2.5801305746626593,1.0023463157682901,-0.4988988802745312,0,0,0,1
-1.979094474662659,0.5811453657682901,0.08892204972546877,0,0,0,1
-0.42229793466265914,0.1878115757682901,0.3500560197254688,0,0,0,1
2.202281525337341,0.027755040768290128,-0.4238234802745312,0,0,0,1
2.202281525337341,0.027755040768290128,-0.4238234802745312,0,0,0,1
3.0429873253373407,-0.33878682423170986,-0.7038859802745312,0,0,0,1
1.512493625337341,-0.11145673423170988,-0.8210025802745312,0,0,0,1
-1.117989974662659,0.7092594157682901,-0.7472277802745312,0,0,0,1
-0.9957127446626591,0.7953216157682902,-0.14400873027453123,0,0,0,1
1.548153425337341,0.05656220376829013,-0.3092863802745312,0,0,0,1
1.548153425337341,0.05656220376829013,-0.3092863802745312,0,0,0,1
0.0799393813373409,-0.1775924942317099,0.4723409697254688,0,0,0,1
2.0380750253373408,-0.1775924942317099,0.4723409697254688,0,0,0,1
-1.150290974662659,0.14349391576829013,0.5154278597254688,0,0,0,1
-1.150290974662659,0.14349391576829013,0.5154278597254688,0,0,0,1
0.9122243253373409,0.2175506557682901,-0.16507316027453123,0,0,0,1
1.573497325337341,0.2706617157682901,-0.7990684202745312,0,0,0,1
0.5255103253373409,-0.09196500423170988,-0.6717863802745312,0,0,0,1
0.5255103253373409,-0.09196500423170988,-0.6717863802745312,0,0,0,1
-0.6922669246626592,0.4786495157682901,-0.2726205302745312,0,0,0,1
-0.6922669246626592,0.4786495157682901,-0.2726205302745312,0,0,0,1
-0.2638649746626591,1.16817391576829,0.12301140972546876,0,0,0,1
0.7854991253373409,0.3121011457682901,-0.061178477274531226,0,0,0,1
0.7755360753373409,0.21681691576829012,-0.14483583027453123,0,0,0,1
0.7755360753373409,0.21681691576829012,-0.14483583027453123,0,0,0,1
0.3711018753373409,0.8277279157682902,-0.16857445027453122,0,0,0,1
-0.3960366046626591,1.25176781576829,-0.48624632027453124,0,0,0,1
-0.6467966746626591,-0.34063206423170983,-0.4431892602745312,0,0,0,1
-0.6467966746626591,-0.34063206423170983,-0.4431892602745312,0,0,0,1
-0.5453285746626592,-0.43898032423170985,-0.4375445302745312,0,0,0,1
0.40875388533734086,0.9424469657682901,-0.12262107627453123,0,0,0,1
0.40875388533734086,0.9424469657682901,-0.12262107627453123,0,0,0,1
0.8511929653373409,1.11749451576829,-0.050759943274531226,0,0,0,1
0.8511929653373409,1.11749451576829,-0.050759943274531226,0,0,0,1
0.5342736253373409,0.8874512157682901,-0.4470774802745312,0,0,0,1
0.12693740533734088,0.32601537576829015,-0.42755035027453125,0,0,0,1
0.27689602533734087,1.04416721576829,-0.6223002402745311,0,0,0,1
0.27689602533734087,1.04416721576829,-0.6223002402745311,0,0,0,1
0.27689602533734087,1.04416721576829,-0.6223002402745311,0,0,0,1
0.21904517533734089,0.1925569957682901,-0.5813380802745312,0,0,0,1
-0.5591025146626591,0.2520085757682901,-0.29415432027453126,0,0,0,1
-0.5591025146626591,0.2520085757682901,-0.29415432027453126,0,0,0,1
-0.1162323786626591,1.20212631576829,0.03546636972546878,0,0,0,1
0.1849770753373409,0.4766813657682901,-0.20656544027453122,0,0,0,1
0.1849770753373409,0.4766813657682901,-0.20656544027453122,0,0,0,1
1.735872725337341,-0.18721435423170987,-0.4575515402745312,0,0,0,1
1.735872725337341,-0.18721435423170987,-0.4575515402745312,0,0,0,1
0.07456638033734089,0.8749194157682901,-0.7742402302745311,0,0,0,1
0.07456638033734089,0.8749194157682901,-0.7742402302745311,0,0,0,1
-0.9171805246626591,0.5037427157682901,-0.5684282802745312,0,0,0,1
1.692067625337341,0.08976973576829013,0.18384783972546878,0,0,0,1
0.6699567253373409,-0.05765793923170987,0.18564289972546877,0,0,0,1
-1.485883274662659,0.6215257857682901,-0.03575295327453122,0,0,0,1
-1.485883274662659,0.6215257857682901,-0.03575295327453122,0,0,0,1
0.6321587753373409,-0.5171440842317099,-0.4836528002745312,0,0,0,1
0.6321587753373409,-0.5171440842317099,-0.4836528002745312,0,0,0,1
1.423080925337341,-0.02013395423170987,-0.20517370027453122,0,0,0,1
1.423080925337341,-0.02013395423170987,-0.20517370027453122,0,0,0,1
1.423080925337341,-0.02013395423170987,-0.20517370027453122,0,0,0,1
-1.140358474662659,0.18400885576829012,-0.18090728027453123,0,0,0,1
-1.140358474662659,0.18400885576829012,-0.18090728027453123,0,0,0,1
-0.6921829746626591,-0.36668848423170985,-0.22367790027453122,0,0,0,1
1.732430925337341,0.07595600576829013,-0.7419541802745312,0,0,0,1
-0.8021235346626591,-0.5134714842317099,-0.46910402027453124,0,0,0,1
-0.23174522466265912,0.17114962576829013,-0.055603897274531223,0,0,0,1
-0.23174522466265912,0.17114962576829013,-0.055603897274531223,0,0,0,1
0.6447949553373409,-0.5965282842317099,0.008114833725468774,0,0,0,1
0.5856871753373409,-0.9371566842317098,0.06925407972546876,0,0,0,1
0.5856871753373409,-0.9371566842317098,0.06925407972546876,0,0,0,1
0.7928614753373409,-0.45222280423170985,-0.04836692827453122,0,0,0,1
0.7295899553373408,-0.10815642423170987,-0.32372525027453125,0,0,0,1
0.7295899553373408,-0.10815642423170987,-0.32372525027453125,0,0,0,1
-0.3175721046626591,0.33566679576829017,-0.7000836802745312,0,0,0,1
0.7491698253373409,0.6896286157682902,-0.8465959102745312,0,0,0,1
1.553073425337341,0.37548971576829016,-0.8794892802745312,0,0,0,1
1.553073425337341,0.37548971576829016,-0.8794892802745312,0,0,0,1
1.553073425337341,0.37548971576829016,-0.8794892802745312,0,0,0,1
