acc_x,acc_y,acc_z,gyro_x,gyro_y,gyro_z,label
0.9908738253373409,-0.23817530423170988,0.12024559972546878,0,0,0,1
0.9908738253373409,-0.23817530423170988,0.12024559972546878,0,0,0,1
0.7188468253373409,0.10634833576829013,-0.33550152027453123,0,0,0,1
1.282752525337341,-0.25464631423170986,-0.4883714602745312,0,0,0,1
1.282752525337341,-0.25464631423170986,-0.4883714602745312,0,0,0,1
0.7715239653373409,0.08768996576829013,-0.31044818027453125,0,0,0,1
-1.116587174662659,0.5798768157682902,-0.47493065027453124,0,0,0,1
-1.116587174662659,0.5798768157682902,-0.47493065027453124,0,0,0,1
0.6540732253373409,-0.8918964842317099,-0.4603233102745312,0,0,0,1
0.6540732253373409,-0.8918964842317099,-0.4603233102745312,0,0,0,1
1.722024425337341,0.20335184576829013,0.009215103725468774,0,0,0,1
1.722024425337341,0.20335184576829013,0.009215103725468774,0,0,0,1
1.722024425337341,0.20335184576829013,0.009215103725468774,0,0,0,1
-1.034012274662659,0.6198796857682901,0.10778601972546877,0,0,0,1
-1.034012274662659,0.6198796857682901,0.10778601972546877,0,0,0,1
-0.5289921746626591,-0.01925159623170987,0.09016441972546876,0,0,0,1
0.9005112853373409,-0.14896170423170987,-0.17932147027453124,0,0,0,1
1.719314125337341,-0.17732080423170987,-0.37943334027453124,0,0,0,1
2.130010125337341,-0.38528608423170985,-0.4214597402745312,0,0,0,1
1.135356425337341,-0.2853644342317099,-0.28784546027453123,0,0,0,1
-0.7142824746626592,-0.44806358423170983,-0.22102453027453123,0,0,0,1
-0.8494210046626591,-0.5050594842317099,0.039596142725468776,0,0,0,1
-0.8494210046626591,-0.5050594842317099,0.039596142725468776,0,0,0,1
-0.7212700746626591,-0.02503092223170987,0.02810018772546877,0,0,0,1
-0.7212700746626591,-0.02503092223170987,0.02810018772546877,0,0,0,1
2.136478925337341,0.30974711576829017,-0.48734768027453124,0,0,0,1
2.136478925337341,0.30974711576829017,-0.48734768027453124,0,0,0,1
0.23057414533734089,0.20365755576829012,-0.7375908202745312,0,0,0,1
-0.5693335346626591,-0.1443293642317099,-0.5899205802745312,0,0,0,1
-0.5693335346626591,-0.1443293642317099,-0.5899205802745312,0,0,0,1
0.2507062253373409,0.4032491657682901,-0.47694922027453124,0,0,0,1
0.2507062253373409,0.4032491657682901,-0.47694922027453124,0,0,0,1
1.530615325337341,-0.14268964423170988,-0.17000985027453122,0,0,0,1
1.276876025337341,-0.6516397442317099,-0.36554676027453126,0,0,0,1
1.276876025337341,-0.6516397442317099,-0.36554676027453126,0,0,0,1
-0.6576227746626591,-0.5988204342317098,-0.2979642502745312,0,0,0,1
-0.37495467466265914,-0.14785913423170988,-0.15952188027453124,0,0,0,1
0.041724698337340896,0.2889366957682901,0.14464891972546878,0,0,0,1
1.692603625337341,0.5744262157682901,0.053406583725468776,0,0,0,1
1.636462725337341,0.24168744576829013,-0.3469653802745312,0,0,0,1
-1.746859074662659,0.006309825768290128,-0.14288923027453124,0,0,0,1
-1.746859074662659,0.006309825768290128,-0.14288923027453124,0,0,0,1
-1.666997374662659,0.38902889576829014,0.22618441972546877,0,0,0,1
1.816609925337341,0.32683868576829017,-0.18915363027453122,0,0,0,1
2.7172179253373407,-0.5865631542317099,-0.5687923102745311,0,0,0,1
2.7172179253373407,-0.5865631542317099,-0.5687923102745311,0,0,0,1
-0.11696480466265911,-0.8962241242317098,-0.31710948027453123,0,0,0,1
-2.454137274662659,0.5612524157682901,0.10184697972546877,0,0,0,1
-2.785187674662659,1.66802731576829,0.6120961197254688,0,0,0,1
-1.034210674662659,1.1856432157682901,0.8069099197254688,0,0,0,1
-1.034210674662659,1.1856432157682901,0.8069099197254688,0,0,0,1
3.0934195253373407,-1.15100678423171,-0.9281584302745312,0,0,0,1
3.0934195253373407,-1.15100678423171,-0.9281584302745312,0,0,0,1
3.0934195253373407,-1.15100678423171,-0.9281584302745312,0,0,0,1
3.0934195253373407,-1.15100678423171,-0.9281584302745312,0,0,0,1
0.6238856253373409,-0.47243056423170987,-1.1600688802745311,0,0,0,1
-4.164591774662659,1.47538651576829,-0.05527124027453122,0,0,0,1
-4.164591774662659,1.47538651576829,-0.05527124027453122,0,0,0,1
-3.456367974662659,0.8009329157682902,0.3651111997254688,0,0,0,1
-0.9794945746626591,-0.48135165423170984,0.21754113972546876,0,0,0,1
-0.9794945746626591,-0.48135165423170984,0.21754113972546876,0,0,0,1
5.300609125337341,-0.9536658342317098,0.18035747972546878,0,0,0,1
4.935405225337341,0.32023301576829016,0.2777037597254688,0,0,0,1
1.640315525337341,1.5613745157682901,-0.40856406027453124,0,0,0,1
1.640315525337341,1.5613745157682901,-0.40856406027453124,0,0,0,1
1.640315525337341,1.5613745157682901,0.11727926972546877,0,0,0,1
-3.3286537746626594,0.5193125157682902,-0.22767060027453123,0,0,0,1
-0.2743315546626591,-0.7568333842317099,-0.40839481027453123,0,0,0,1
4.2018123253373405,0.16505544576829012,-0.3493010802745312,0,0,0,1
1.475781025337341,-0.2030520442317099,-0.9912129802745312,0,0,0,1
-1.013547374662659,-1.05620838423171,0.5988990197254688,0,0,0,1
-1.013547374662659,-1.05620838423171,0.5988990197254688,0,0,0,1
-3.8201102746626594,-0.6508248842317098,0.7807999497254688,0,0,0,1
-4.516078974662659,0.6111823157682902,0.9072717697254689,0,0,0,1
3.823564025337341,0.38347317576829015,-0.18051183027453124,0,0,0,1
3.823564025337341,0.38347317576829015,-0.18051183027453124,0,0,0,1
3.823564025337341,0.38347317576829015,-0.18051183027453124,0,0,0,1
2.9117397253373407,-1.13984698423171,-1.1076097802745313,0,0,0,1
0.9832539753373409,-0.8716402842317098,-0.8931325802745311,0,0,0,1
-3.5487060746626593,1.27143131576829,-0.08832960027453123,0,0,0,1
1.058952825337341,-0.05063767423170987,0.4980510197254688,0,0,0,1
1.058952825337341,-0.05063767423170987,0.4980510197254688,0,0,0,1
2.0828767253373406,-0.5014871842317099,0.16470473972546876,0,0,0,1
2.857853425337341,-0.8080296342317098,-0.14718095027453124,0,0,0,1
2.857853425337341,-0.8080296342317098,-0.14718095027453124,0,0,0,1
1.255019725337341,-0.3774887142317099,-0.07028150027453123,0,0,0,1
1.255019725337341,-0.3774887142317099,-0.07028150027453123,0,0,0,1
-2.1259836746626593,0.5721484557682901,-0.3784761102745312,0,0,0,1
-0.9263024146626591,0.23990887576829012,-0.36755768027453123,0,0,0,1
0.5918965253373409,-0.25151692423170985,-0.5622704802745312,0,0,0,1
0.5918965253373409,-0.25151692423170985,-0.5622704802745312,0,0,0,1
1.873163725337341,-0.35585498423170986,-0.42826352027453124,0,0,0,1
1.976198725337341,0.28031964576829016,-0.026114614274531225,0,0,0,1
1.976198725337341,0.28031964576829016,-0.026114614274531225,0,0,0,1
0.025839345337340894,0.28280141576829015,0.15855565972546878,0,0,0,1
-0.5703625746626592,-0.2579647842317099,-0.026622386274531225,0,0,0,1
-0.5703625746626592,-0.2579647842317099,-0.026622386274531225,0,0,0,1
0.06413985933734088,-0.29751632423170987,-0.2505565002745312,0,0,0,1
0.9274115753373409,-0.1907387842317099,-0.24562638027453124,0,0,0,1
1.173098125337341,0.2836474957682901,-0.4256348002745312,0,0,0,1
1.173098125337341,0.2836474957682901,-0.4256348002745312,0,0,0,1
0.5601830653373409,0.07205538576829013,-0.2623098202745312,0,0,0,1
-0.2227778246626591,-0.2821697442317099,-0.23586595027453122,0,0,0,1
-0.5915150746626591,-0.5077222442317099,-0.19785839027453123,0,0,0,1
-0.025215609662659105,-0.41110430423170985,-0.05612518027453122,0,0,0,1
1.268002025337341,0.06557758576829013,0.19880803972546876,0,0,0,1
1.268002025337341,0.06557758576829013,0.19880803972546876,0,0,0,1
0.3020663453373409,-0.5692051442317099,-0.10500360027453123,0,0,0,1
0.3020663453373409,-0.5692051442317099,-0.10500360027453123,0,0,0,1
-0.2510189846626591,-0.4382038542317099,-0.16606580027453122,0,0,0,1
-0.3349242046626591,0.41192375576829016,-0.009373219374531226,0,0,0,1
-0.3349242046626591,0.41192375576829016,-0.009373219374531226,0,0,0,1
0.33404112533734087,0.9150946157682901,-0.2838178602745312,0,0,0,1
0.33404112533734087,0.9150946157682901,-0.2838178602745312,0,0,0,1
0.5376162653373409,-0.5543201842317098,-0.6341791502745312,0,0,0,1
0.13071204533734088,0.3655526157682901,0.14897959972546876,0,0,0,1
0.049077525337340895,0.9737037557682902,0.48116733972546877,0,0,0,1
0.049077525337340895,0.9737037557682902,0.48116733972546877,0,0,0,1
0.49791766533734094,0.6899831457682901,0.5202767497254688,0,0,0,1
0.8486333253373409,0.05000034276829013,0.31142323972546876,0,0,0,1
-0.17039821466265911,0.3016478557682901,-0.30295935027453125,0,0,0,1
-0.17039821466265911,0.3016478557682901,-0.30295935027453125,0,0,0,1
-0.17039821466265911,0.3016478557682901,-0.30295935027453125,0,0,0,1
-0.2638192046626591,0.21661876576829012,-0.3491075802745312,0,0,0,1
0.9825682753373409,-0.28989635423170984,-0.6723274302745311,0,0,0,1
0.9827780853373409,-0.2887785842317099,-0.6609280402745312,0,0,0,1
0.9864173253373408,-0.4993732342317099,0.12502279972546876,0,0,0,1
0.07183887533734089,-0.7431748342317098,0.3571397597254688,0,0,0,1
0.7159228253373409,-0.48286178423170983,0.28431224972546876,0,0,0,1
0.9231047753373409,0.32018463576829015,0.5914348197254689,0,0,0,1
0.12567569533734088,1.65234161576829,0.19262431972546876,0,0,0,1
-0.6868290746626591,0.5552822557682902,-0.7217473102745312,0,0,0,1
-0.6868290746626591,0.5552822557682902,-0.7217473102745312,0,0,0,1
-0.6868290746626591,0.5552822557682902,-0.7217473102745312,0,0,0,1
-0.6659741246626592,-1.70469458423171,-0.9922633502745312,0,0,0,1
0.8307881253373409,-0.3469003842317099,-0.5058129402745312,0,0,0,1
2.5495171253373408,0.6173444557682901,0.20563847972546878,0,0,0,1
2.5495171253373408,0.6173444557682901,0.20563847972546878,0,0,0,1
1.369385225337341,-0.42155668423170983,0.33166301972546874,0,0,0,1
-1.353129874662659,-0.6165085242317099,0.2526269497254688,0,0,0,1
-2.422509274662659,0.27155461576829015,0.24212462972546878,0,0,0,1
-1.961964074662659,0.6247161857682901,0.038544414725468774,0,0,0,1
3.4993224253373407,0.48875371576829013,-0.6307558802745312,0,0,0,1
3.4993224253373407,0.48875371576829013,-0.6307558802745312,0,0,0,1
3.4993224253373407,0.48875371576829013,-0.6307558802745312,0,0,0,1
1.155637325337341,-0.39889184423170987,-0.5168653802745312,0,0,0,1
-0.6059050446626592,-1.58158618423171,0.20364185972546878,0,0,0,1
-2.740758874662659,-0.8766019142317099,0.4371122997254688,0,0,0,1
-2.921639874662659,0.7204329157682902,1.0132322197254688,0,0,0,1
-2.921639874662659,0.7204329157682902,1.0132322197254688,0,0,0,1
-0.7796206346626591,1.24371331576829,1.3298560197254687,0,0,0,1
2.5675778253373407,-0.41846854423170987,-0.16842225027453123,0,0,0,1
3.2204060253373408,-1.19531298423171,-1.3170714802745311,0,0,0,1
3.2203545253373407,-1.19507298423171,-1.319143280274531,0,0,0,1
3.2203545253373407,-1.19507298423171,-1.319143280274531,0,0,0,1
-1.544773574662659,1.02702591576829,-0.5869326802745312,0,0,0,1
-1.067676974662659,-0.8805205842317099,0.9119525797254688,0,0,0,1
1.322252725337341,-0.3085172842317099,0.6447507197254688,0,0,0,1
3.489906725337341,-0.07823499423170988,0.5885808797254688,0,0,0,1
3.489906725337341,-0.07823499423170988,0.5885808797254688,0,0,0,1
4.12994722533734,0.08864865076829014,0.13384870972546878,0,0,0,1
-2.3488239746626594,0.5250827857682902,-0.5162921802745312,0,0,0,1
-2.104645674662659,0.36068631576829013,-0.3766545402745312,0,0,0,1
0.2862458253373409,0.1561279057682901,-0.13301057027453123,0,0,0,1
4.194291725337341,0.1554726557682901,-0.08320224427453123,0,0,0,1
3.208418425337341,-0.6193602542317098,-0.08285242427453123,0,0,0,1
-2.6200670746626593,0.5916313757682902,0.9649982197254688,0,0,0,1
-2.6200670746626593,0.5916313757682902,0.9649982197254688,0,0,0,1
-0.9743828746626592,1.5292316157682901,0.6709455497254688,0,0,0,1
-0.9743828746626592,1.5292316157682901,0.6709455497254688,0,0,0,1
1.065233725337341,-0.4215889842317099,-1.049292380274531,0,0,0,1
0.7288222253373409,-2.0019350842317096,-1.2437836802745312,0,0,0,1
-0.07946060466265911,-1.87938628423171,-0.5983568802745312,0,0,0,1
-0.07946060466265911,-1.87938628423171,-0.5983568802745312,0,0,0,1
-0.7524237746626591,0.5997011157682901,-0.0006661877745312251,0,0,0,1
-0.1286272846626591,2.4352946157682904,0.3942280197254688,0,0,0,1
1.382396225337341,1.86717551576829,0.18958319972546878,0,0,0,1
-0.3620352546626591,-1.9341538842317099,-0.6060126802745311,0,0,0,1
-0.3620352546626591,-1.9341538842317099,-0.6060126802745311,0,0,0,1
-0.8521513746626591,1.47365271576829,0.3339923897254688,0,0,0,1
0.1294627353373409,2.1934319157682904,0.4056353197254688,0,0,0,1
1.598535125337341,1.15341451576829,-0.4747065002745312,0,0,0,1
2.7135053253373407,-0.16856555423170988,-1.3359079802745313,0,0,0,1
2.7135053253373407,-0.16856555423170988,-1.3359079802745313,0,0,0,1
-0.6663985046626592,-1.13301088423171,-0.6170202202745312,0,0,0,1
-2.277263174662659,-0.009898957231709872,0.7359857197254688,0,0,0,1
-1.793119874662659,1.23846511576829,1.4313163197254688,0,0,0,1
1.616455525337341,0.7902188457682902,0.9634461197254688,0,0,0,1
1.616455525337341,0.7902188457682902,0.9634461197254688,0,0,0,1
2.1681637253373407,-2.08997108423171,-0.8131389802745311,0,0,0,1
2.1681637253373407,-2.08997108423171,-0.8131389802745311,0,0,0,1
