acc_x,acc_y,acc_z,gyro_x,gyro_y,gyro_z,label
-0.8033308746626591,0.7031596157682901,-0.22031894027453122,0,0,0,1
-2.1677064746626593,1.02501111576829,-0.3699112202745312,0,0,0,1
-2.1679392746626593,1.00767471576829,-0.36806914027453125,0,0,0,1
1.383137225337341,-0.29614080423170985,-0.48513714027453125,0,0,0,1
2.1557765253373407,-0.31526748423170986,-0.5655317802745312,0,0,0,1
1.927222725337341,-0.46230111423170983,-0.7424896802745312,0,0,0,1
1.927222725337341,-0.46230111423170983,-0.7424896802745312,0,0,0,1
-1.538908474662659,0.1348213457682901,0.030036119725468772,0,0,0,1
-1.538908474662659,0.1348213457682901,0.030036119725468772,0,0,0,1
-1.836698974662659,0.7670919457682901,0.21485494972546876,0,0,0,1
0.8079486253373409,0.26432481576829014,0.054842979725468775,0,0,0,1
0.8079486253373409,0.26432481576829014,0.054842979725468775,0,0,0,1
1.298657925337341,-0.44176743423170983,-0.36190865027453123,0,0,0,1
1.299539125337341,-1.31999408423171,-0.40087398027453125,0,0,0,1
0.4666867453373409,-1.09398198423171,-0.30930886027453125,0,0,0,1
0.4666867453373409,-1.09398198423171,-0.30930886027453125,0,0,0,1
0.4666867453373409,-1.09398198423171,-0.30930886027453125,0,0,0,1
0.2610535753373409,0.41289361576829015,-0.12006059427453122,0,0,0,1
0.7895312253373409,-0.46821556423170985,-0.2545514402745312,0,0,0,1
0.4789300253373409,-0.7183497842317098,-0.35841200027453124,0,0,0,1
0.3513322053373409,-0.34370682423170984,-0.3156851202745312,0,0,0,1
0.3513322053373409,-0.34370682423170984,-0.3156851202745312,0,0,0,1
-0.0878681946626591,0.27450366576829016,0.03156879372546878,0,0,0,1
-0.29390762466265913,0.16420525576829012,0.10077383972546877,0,0,0,1
0.33627368533734087,0.31903519576829015,-0.14460060027453123,0,0,0,1
1.103043125337341,0.3457291357682901,-0.3081965202745312,0,0,0,1
1.164330025337341,0.29481463576829015,-0.3267653802745312,0,0,0,1
0.5681462253373409,0.09794123576829013,-0.5887074802745311,0,0,0,1
0.5681462253373409,0.09794123576829013,-0.5887074802745311,0,0,0,1
0.5681462253373409,0.09794123576829013,-0.5887074802745311,0,0,0,1
0.5681462253373409,0.09794123576829013,-0.5887074802745311,0,0,0,1
-0.19590900466265912,0.18291814576829013,0.04531588972546878,0,0,0,1
-0.19590900466265912,0.18291814576829013,0.04531588972546878,0,0,0,1
1.375339025337341,-0.2141025642317099,-0.026378424274531225,0,0,0,1
-0.5873665746626591,0.33558151576829015,-0.33584448027453123,0,0,0,1
-0.5873665746626591,0.33558151576829015,-0.33584448027453123,0,0,0,1
-0.9167885746626591,0.07623443576829013,-0.42665318027453125,0,0,0,1
-0.9800781746626591,0.032763529768290126,-0.6065423802745312,0,0,0,1
-0.6394352746626591,0.032763529768290126,-0.6065423802745312,0,0,0,1
0.2871155853373409,0.03421871576829013,-0.6133292802745312,0,0,0,1
0.6975064253373409,-0.07129920423170986,-0.3238979802745312,0,0,0,1
0.6975064253373409,-0.07129920423170986,-0.3238979802745312,0,0,0,1
0.6975064253373409,-0.07129920423170986,-0.3238979802745312,0,0,0,1
0.2072987753373409,-0.46758108423170985,-0.23308221027453124,0,0,0,1
0.17984058533734087,-0.5832564842317098,0.3881890797254688,0,0,0,1
-0.2922158046626591,0.10231548576829012,0.3519069197254688,0,0,0,1
-0.9450955246626591,-0.07557351423170987,-0.17660782027453123,0,0,0,1
-0.9450955246626591,-0.07557351423170987,-0.17660782027453123,0,0,0,1
-0.12354515466265911,-0.7946325342317099,0.030064849725468776,0,0,0,1
0.15257407533734088,-0.6246882542317098,-0.4614196102745312,0,0,0,1
1.120692725337341,0.8446075157682902,-0.7066212802745312,0,0,0,1
0.6916394253373409,0.7633276157682901,-0.6703391402745311,0,0,0,1
-0.7162079746626591,-0.43414322423170987,0.13842817972546878,0,0,0,1
-0.7162079746626591,-0.43414322423170987,0.13842817972546878,0,0,0,1
-0.07253025466265911,0.07789476576829013,0.43863975972546876,0,0,0,1
-0.07253025466265911,0.07789476576829013,0.43863975972546876,0,0,0,1
0.6652169253373409,-0.7537656842317099,0.12043186972546877,0,0,0,1
0.6652169253373409,-0.7537656842317099,0.12043186972546877,0,0,0,1
-0.7890171746626591,-0.07767896023170986,0.011793819725468772,0,0,0,1
-1.245635474662659,0.7137424157682901,0.008489517725468774,0,0,0,1
-0.0381331286626591,-0.27608822423170987,-0.4690050202745312,0,0,0,1
-0.0381331286626591,-0.27608822423170987,-0.4690050202745312,0,0,0,1
1.189751125337341,-0.5730559842317099,-0.22132585027453122,0,0,0,1
0.7797475253373409,1.06874821576829,0.30083813972546875,0,0,0,1
0.030611531337340896,0.1550601357682901,-0.14806238027453122,0,0,0,1
0.7664962253373409,1.14631721576829,-0.4200293102745312,0,0,0,1
0.7664962253373409,1.14631721576829,-0.4200293102745312,0,0,0,1
0.7664962253373409,1.14631721576829,-0.4200293102745312,0,0,0,1
1.513164025337341,0.6565516157682901,-0.33290550027453125,0,0,0,1
0.2536864453373409,0.2954275157682901,0.17783661972546877,0,0,0,1
0.2536864453373409,0.2954275157682901,0.17783661972546877,0,0,0,1
0.2536864453373409,0.2954275157682901,0.17783661972546877,0,0,0,1
0.9402203753373409,0.45838694576829014,-0.12874982027453122,0,0,0,1
0.9402203753373409,0.45838694576829014,-0.12874982027453122,0,0,0,1
-0.2093720246626591,-0.7266545842317098,-0.03913411627453122,0,0,0,1
-0.2093720246626591,-0.7266545842317098,-0.03913411627453122,0,0,0,1
-0.2479233546626591,0.39923331576829013,-0.23724148027453124,0,0,0,1
0.2819323653373409,0.15278284576829013,-0.5741251402745312,0,0,0,1
0.2311768653373409,-0.40236453423170987,-0.5611104802745311,0,0,0,1
0.2311768653373409,-0.40236453423170987,-0.5611104802745311,0,0,0,1
0.3145518453373409,-0.3597180642317099,-0.5704215802745312,0,0,0,1
0.3145518453373409,-0.3597180642317099,-0.5704215802745312,0,0,0,1
-0.0832629046626591,0.30353103576829016,-0.2522206602745312,0,0,0,1
-0.0832629046626591,0.30353103576829016,-0.2522206602745312,0,0,0,1
-0.3439421446626591,-0.9434400842317099,0.021672813725468774,0,0,0,1
-0.3439421446626591,-0.9434400842317099,0.021672813725468774,0,0,0,1
0.27671958533734087,-0.9759584842317098,0.10133614972546877,0,0,0,1
0.5888343253373409,-0.021710109231709872,0.047505764725468774,0,0,0,1
0.1347756553373409,0.7663058157682902,-0.10641900027453123,0,0,0,1
0.1347756553373409,0.7663058157682902,-0.10641900027453123,0,0,0,1
-0.5178427746626592,-0.1907754942317099,-0.6797862402745312,0,0,0,1
-0.5178427746626592,-0.1907754942317099,-0.6797862402745312,0,0,0,1
-0.07697056466265911,0.06789242076829013,-0.5150796502745312,0,0,0,1
0.6389432253373409,0.1533954057682901,-0.4143615102745312,0,0,0,1
0.6389432253373409,0.1533954057682901,-0.4143615102745312,0,0,0,1
1.099667125337341,-0.12510238423170988,-0.18507633027453124,0,0,0,1
0.5041423253373409,0.02207203576829013,0.2548184697254688,0,0,0,1
-0.5775875746626591,0.46831681576829015,0.44795701972546875,0,0,0,1
-0.5775875746626591,0.46831681576829015,0.44795701972546875,0,0,0,1
-0.16120003466265911,-0.39622352423170987,0.11981054972546876,0,0,0,1
-0.4493594046626591,-0.8885396842317098,-0.5270512402745312,0,0,0,1
-0.4493594046626591,-0.8885396842317098,-0.5270512402745312,0,0,0,1
0.6169295253373409,-0.8936803142317099,-0.2599384502745312,0,0,0,1
1.312084725337341,-0.28780524423170983,-0.19040367027453123,0,0,0,1
0.34629680533734086,0.7582812157682901,-0.08160719427453123,0,0,0,1
-0.4919886446626591,0.7915270557682902,-0.19290486027453124,0,0,0,1
0.4642996953373409,-0.07534379923170988,-0.09609166027453123,0,0,0,1
0.4642996953373409,-0.07534379923170988,-0.09609166027453123,0,0,0,1
-1.056020274662659,-0.5637439842317099,-0.14062032027453122,0,0,0,1
-1.613193974662659,-0.005412768831709871,0.05688473472546878,0,0,0,1
-1.613193974662659,-0.005412768831709871,0.05688473472546878,0,0,0,1
-1.613193974662659,-0.005412768831709871,0.05688473472546878,0,0,0,1
1.147583525337341,0.022745120768290127,0.48225676972546877,0,0,0,1
1.404519525337341,0.34168771576829016,-0.08728990027453123,0,0,0,1
1.404519525337341,0.34168771576829016,-0.08728990027453123,0,0,0,1
1.721738325337341,0.08673595576829013,-0.7232659202745312,0,0,0,1
0.11436320933734088,-0.45511321423170986,-0.6891727202745311,0,0,0,1
-1.651183574662659,-0.48835091423170984,-0.9321815802745311,0,0,0,1
-1.378353574662659,-0.5056681842317099,-0.31698510027453125,0,0,0,1
-0.002208216762659106,0.06861137176829013,-0.04190096427453122,0,0,0,1
1.610506525337341,0.17135981576829012,0.24290444972546876,0,0,0,1
1.610506525337341,0.17135981576829012,0.24290444972546876,0,0,0,1
-0.5709109146626591,-1.10654128423171,0.11797603972546877,0,0,0,1
-1.889324674662659,-0.6663051842317098,0.24355586972546878,0,0,0,1
-1.889324674662659,-0.6663051842317098,0.24355586972546878,0,0,0,1
-1.393703874662659,0.28680406576829015,0.09191742372546877,0,0,0,1
0.1473241053373409,0.9086097157682902,-0.05258772027453122,0,0,0,1
1.195118425337341,0.49839134576829014,-0.5680854802745312,0,0,0,1
1.533017625337341,-0.1413015542317099,-0.7062618402745312,0,0,0,1
1.533017625337341,-0.1413015542317099,-0.9491204302745312,0,0,0,1
-0.5954327446626592,-0.5534429842317099,-0.4865727802745312,0,0,0,1
-0.9426903746626591,0.09197618576829013,0.11381598972546877,0,0,0,1
0.5584407253373409,0.9233367657682902,0.30525448972546876,0,0,0,1
0.7518630253373408,-0.10954765423170987,0.21606757972546878,0,0,0,1
0.6267886253373409,-1.36418768423171,-0.6477018802745311,0,0,0,1
0.6558470853373409,-2.4657833842317096,-0.34358968027453124,0,0,0,1
0.6558470853373409,-2.4657833842317096,-0.34358968027453124,0,0,0,1
0.06824924533734089,-1.4482835842317099,-0.5323703802745312,0,0,0,1
-0.6904253746626591,1.16105821576829,-0.29216436027453124,0,0,0,1
-0.2827601246626591,2.93465191576829,-0.013829500974531225,0,0,0,1
0.15413619533734088,0.11959837576829013,0.03664657272546878,0,0,0,1
0.15413619533734088,0.11959837576829013,0.03664657272546878,0,0,0,1
-0.3313441146626591,-1.46946998423171,-0.5512259302745312,0,0,0,1
0.3280053253373409,-1.7934505842317099,-0.6402877802745311,0,0,0,1
0.3280053253373409,-1.7934505842317099,-0.6402877802745311,0,0,0,1
0.8921761653373409,-1.10240168423171,-0.17916420027453123,0,0,0,1
0.11751319533734089,0.48987485576829015,0.35217811972546875,0,0,0,1
-0.9160046446626591,1.25209551576829,0.4391780797254688,0,0,0,1
-0.9160046446626591,1.25209551576829,0.4391780797254688,0,0,0,1
0.4536662253373409,-1.75232198423171,-0.6654961402745312,0,0,0,1
0.4536662253373409,-1.75232198423171,-0.6654961402745312,0,0,0,1
0.4031071853373409,-0.9764798842317098,-0.6961931302745312,0,0,0,1
-0.8572010746626592,1.88409541576829,0.40033931972546877,0,0,0,1
-0.8572010746626592,1.88409541576829,0.40033931972546877,0,0,0,1
-0.6062826746626591,-0.3955361042317099,-0.2890715802745312,0,0,0,1
-0.0792784546626591,-0.1289827342317099,-0.07249954527453123,0,0,0,1
1.195926225337341,0.5275642457682902,-0.004158885774531225,0,0,0,1
1.270299425337341,1.09822881576829,0.09908773972546878,0,0,0,1
1.270299425337341,1.09822881576829,0.09908773972546878,0,0,0,1
-0.7212052146626591,-0.2329171442317099,-0.06829682027453123,0,0,0,1
-0.4562573246626591,-1.57415288423171,0.29561516972546875,0,0,0,1
-0.4530176946626591,-0.41030988423170983,0.4182884997254688,0,0,0,1
-0.4530176946626591,-0.41030988423170983,0.4182884997254688,0,0,0,1
-0.9067539746626591,-0.9402023842317099,-0.22272805027453124,0,0,0,1
-1.338570074662659,-0.5915099242317099,-0.22668734027453122,0,0,0,1
-0.8950514746626591,0.7104307557682902,0.16184529972546877,0,0,0,1
-0.12269542966265912,1.50592331576829,0.16431488972546876,0,0,0,1
1.831446225337341,0.30145068576829015,-0.036735506274531225,0,0,0,1
3.002894925337341,-0.2107111942317099,-0.24200764027453123,0,0,0,1
3.002894925337341,-0.2107111942317099,-0.24200764027453123,0,0,0,1
3.002894925337341,-0.2107111942317099,-0.24200764027453123,0,0,0,1
-0.7797169746626591,0.35194261576829017,-0.15270993027453122,0,0,0,1
0.6955151753373409,-0.04909000923170987,-0.09434810427453123,0,0,0,1
2.048447125337341,-0.8212653842317098,-0.31039736027453124,0,0,0,1
2.048447125337341,-0.8212653842317098,-0.31039736027453124,0,0,0,1
0.044942395337340894,1.04808131576829,0.7510267197254689,0,0,0,1
-0.09251163466265912,0.9607960757682902,0.5484533197254688,0,0,0,1
-0.09251163466265912,0.9607960757682902,0.5484533197254688,0,0,0,1
-0.06315944966265911,0.25714451576829017,0.14995815972546878,0,0,0,1
0.6505170253373409,-0.32143275423170986,-0.5020289802745312,0,0,0,1
1.320528525337341,-0.20478008423170987,-0.5975670802745312,0,0,0,1
0.015300290337340896,0.24774278576829012,-0.5356427802745312,0,0,0,1
0.015300290337340896,0.24774278576829012,-0.5356427802745312,0,0,0,1
0.015300290337340896,0.24774278576829012,-0.5356427802745312,0,0,0,1
0.3925547753373409,0.18642439576829012,-0.3872092802745312,0,0,0,1
0.7253909253373408,-0.45746974423170983,-0.06569508027453122,0,0,0,1
0.20381213533734088,-1.23485138423171,0.30732717972546875,0,0,0,1
0.20381213533734088,-1.23485138423171,0.30732717972546875,0,0,0,1
-0.6789364746626592,-1.09169288423171,0.5257879197254688,0,0,0,1
-0.6789364746626592,-1.09169288423171,0.5257879197254688,0,0,0,1
