acc_x,acc_y,acc_z,gyro_x,gyro_y,gyro_z,label
-0.5473379746626591,-0.002533991231709871,0.9712836197254688,0,0,0,1
1.281221925337341,-1.26370308423171,1.080453019725469,0,0,0,1
0.5449872253373409,-0.49579445423170987,0.10999688372546877,0,0,0,1
0.5449872253373409,-0.49579445423170987,0.10999688372546877,0,0,0,1
0.3241906253373409,0.5067015157682901,-0.025807889274531225,0,0,0,1
0.3119597553373409,0.8463957457682901,-0.10444465427453123,0,0,0,1
0.3112712053373409,-0.20908386423170988,-1.238052680274531,0,0,0,1
1.790237925337341,-1.26176828423171,-0.8282295802745312,0,0,0,1
1.296651425337341,-0.8324513242317099,-0.24456158027453123,0,0,0,1
1.296651425337341,-0.8324513242317099,-0.24456158027453123,0,0,0,1
-1.612410074662659,1.28996611576829,0.8798777697254688,0,0,0,1
-0.42557477466265914,-0.2343755442317099,0.5392361197254688,0,0,0,1
2.1971574253373407,-0.25935421423170985,-0.5667076402745311,0,0,0,1
2.1971574253373407,-0.25935421423170985,-0.5667076402745311,0,0,0,1
3.017706425337341,0.1650072157682901,-0.8163917402745312,0,0,0,1
0.6529135853373409,0.5860570157682902,-1.0551054802745312,0,0,0,1
-1.725193474662659,0.25455191576829017,-0.8027311802745312,0,0,0,1
-1.334897474662659,-0.8184914842317098,0.6312761197254688,0,0,0,1
-0.4190668946626591,-0.8117963442317099,0.8848837197254689,0,0,0,1
1.471336825337341,0.8539560157682902,0.9212917197254689,0,0,0,1
2.767639725337341,0.7263671157682902,0.5946011797254688,0,0,0,1
2.767639725337341,0.7263671157682902,0.5946011797254688,0,0,0,1
-0.7723040446626591,-0.8046365842317098,-0.7692209802745311,0,0,0,1
-1.541946874662659,-1.53317108423171,-1.2093247802745313,0,0,0,1
-1.541946874662659,-1.53317108423171,-1.2093247802745313,0,0,0,1
-0.8466286746626591,-0.9935282842317098,-1.1912076802745313,0,0,0,1
1.022726525337341,0.7677665557682901,0.7909765497254688,0,0,0,1
0.8476186253373409,-0.40960500423170987,1.1848952197254687,0,0,0,1
0.8476186253373409,-0.40960500423170987,1.1848952197254687,0,0,0,1
-0.1530871246626591,-0.5835644842317098,1.0252828197254689,0,0,0,1
-0.1530871246626591,-0.5835644842317098,1.0252828197254689,0,0,0,1
-0.36142587466265913,1.31987551576829,0.5578823197254689,0,0,0,1
0.24455692533734089,1.28687291576829,-0.11704460027453123,0,0,0,1
0.24455692533734089,1.28687291576829,-0.11704460027453123,0,0,0,1
0.1440873253373409,-1.0919258842317099,-1.621154580274531,0,0,0,1
0.1440873253373409,-1.0919258842317099,-1.621154580274531,0,0,0,1
0.1283278653373409,0.18682889576829012,-0.5399710302745312,0,0,0,1
0.3939862453373409,1.14665851576829,0.08347269972546877,0,0,0,1
-0.19583080466265912,-0.005612370231709872,0.9502386697254688,0,0,0,1
-0.19583080466265912,-0.005612370231709872,0.9502386697254688,0,0,0,1
-0.6206660146626591,-0.9857117842317099,1.1209698197254687,0,0,0,1
-0.2337746446626591,-1.2212726842317099,0.8754374197254688,0,0,0,1
0.2125802253373409,-0.38042504423170986,0.34223386972546876,0,0,0,1
0.0427899523373409,1.03446141576829,-0.3842655802745312,0,0,0,1
0.0427899523373409,1.03446141576829,-0.3842655802745312,0,0,0,1
0.0427899523373409,1.03446141576829,-0.3842655802745312,0,0,0,1
-0.08467148466265911,-0.19779762423170988,-0.8821809802745312,0,0,0,1
-0.08467148466265911,-0.19779762423170988,-0.8821809802745312,0,0,0,1
1.432462225337341,-0.2254513642317099,-0.5522423102745312,0,0,0,1
1.832351225337341,-0.14255650423170987,0.06806286972546877,0,0,0,1
-0.3595242346626591,-0.2077637142317099,0.8695168197254688,0,0,0,1
-0.32122467466265914,0.39223571576829014,0.9932012197254689,0,0,0,1
-0.029465182662659104,1.35374421576829,0.30854364972546877,0,0,0,1
0.5134673253373409,1.0769938157682901,-0.13491407027453123,0,0,0,1
0.5134673253373409,1.0769938157682901,-0.13491407027453123,0,0,0,1
0.5780968853373409,0.06765685576829013,-0.8555560402745311,0,0,0,1
-0.4017863146626591,-0.6785654242317098,-1.4816401802745311,0,0,0,1
-1.497080274662659,-0.45038208423170983,-1.3766310802745312,0,0,0,1
-0.8303580146626591,1.33232521576829,0.38311805972546875,0,0,0,1
0.7253947253373408,0.8162406157682901,0.6923234197254688,0,0,0,1
1.756827825337341,-0.6561580842317098,0.5657930197254688,0,0,0,1
1.454879325337341,-1.6908977842317099,0.22221204972546876,0,0,0,1
-1.754291474662659,0.4069042957682901,0.2542290397254688,0,0,0,1
-1.795271374662659,1.54794551576829,0.06668027972546876,0,0,0,1
-0.6908564446626592,1.06511491576829,-0.33082166027453125,0,0,0,1
0.6034960953373409,-0.2064570142317099,-0.7442220802745312,0,0,0,1
0.6034960953373409,-0.2064570142317099,-0.7442220802745312,0,0,0,1
-0.7354607446626591,-0.14718268423170988,0.22537704972546876,0,0,0,1
-1.047200674662659,-0.8508854342317098,0.5072464197254688,0,0,0,1
-1.047200674662659,-0.8508854342317098,0.5072464197254688,0,0,0,1
-0.5070671746626592,-0.7798829442317099,0.5262062197254688,0,0,0,1
-0.5070671746626592,-0.7798829442317099,0.5262062197254688,0,0,0,1
-0.7196821746626592,0.04769046176829013,0.33639397972546875,0,0,0,1
-0.7196821746626592,0.04769046176829013,0.33639397972546875,0,0,0,1
0.4684071653373409,-0.5119316442317099,0.15522977972546878,0,0,0,1
1.405682125337341,-1.13297528423171,-0.4323480402745312,0,0,0,1
1.097075925337341,-0.40732006423170986,-0.6932524802745311,0,0,0,1
0.6905751253373409,0.5550937857682902,-0.8592342402745312,0,0,0,1
0.6905751253373409,0.5550937857682902,-0.8592342402745312,0,0,0,1
-0.23443554466265912,0.9982882157682902,-0.20822862027453123,0,0,0,1
-1.300816974662659,0.44943091576829014,0.04107674972546878,0,0,0,1
-1.300816974662659,0.44943091576829014,0.04107674972546878,0,0,0,1
-0.5843167146626591,-0.7530177842317098,0.4333454697254688,0,0,0,1
0.9848523253373409,-1.21951168423171,0.7749955197254689,0,0,0,1
0.9848523253373409,-1.21951168423171,0.7749955197254689,0,0,0,1
0.9412951653373409,0.20873881576829012,-0.0020635442745312255,0,0,0,1
-0.6473154746626592,-0.8316318242317099,-0.4145682202745312,0,0,0,1
-1.928531674662659,0.45366341576829017,-0.47192778027453125,0,0,0,1
-1.303324174662659,1.29965771576829,-0.6790501202745312,0,0,0,1
-1.303324174662659,1.29965771576829,-0.6790501202745312,0,0,0,1
0.9235825653373408,1.15059611576829,-0.5912429402745312,0,0,0,1
1.759907225337341,-0.15027802423170988,-0.6912176802745311,0,0,0,1
0.9908194653373409,-1.02630218423171,-0.5136735802745311,0,0,0,1
0.0793872053373409,-1.23058558423171,0.06683882972546877,0,0,0,1
-0.3850598146626591,0.9619037657682902,0.3995204897254688,0,0,0,1
-0.3850598146626591,0.9619037657682902,0.3995204897254688,0,0,0,1
1.486821725337341,-0.7341254142317098,-0.7337993802745312,0,0,0,1
-0.6378989046626591,-0.24077254423170988,-1.169888880274531,0,0,0,1
-0.1386942746626591,0.08612162576829013,-0.4310438802745312,0,0,0,1
0.2799878253373409,0.5913306157682902,-0.30986932027453123,0,0,0,1
0.7795520253373409,-0.02810156023170987,0.4141435897254688,0,0,0,1
0.7795520253373409,-0.02810156023170987,0.4141435897254688,0,0,0,1
0.6618676253373409,-0.2889482842317099,0.8254798197254688,0,0,0,1
-1.116442174662659,1.1313763157682901,0.5108622597254688,0,0,0,1
-1.116442174662659,1.1313763157682901,0.5108622597254688,0,0,0,1
-1.116442174662659,1.1313763157682901,0.5108622597254688,0,0,0,1
1.007352325337341,-0.5772841342317099,-0.8477323402745311,0,0,0,1
1.551734425337341,-0.05336868423170987,-0.38525848027453125,0,0,0,1
-1.038172274662659,0.5811456157682902,0.10630139572546878,0,0,0,1
-0.9178080446626591,-0.25431768423170986,0.6869922597254688,0,0,0,1
1.222293425337341,0.004914868368290129,0.17248460972546878,0,0,0,1
0.06347037933734088,-0.12082309423170987,0.4842593997254688,0,0,0,1
1.222293425337341,0.004914868368290129,0.17248460972546878,0,0,0,1
1.118504025337341,-0.1266072242317099,-0.27824786027453124,0,0,0,1
-0.3832182746626591,0.04044765576829013,-0.19880870027453124,0,0,0,1
-0.3832182746626591,0.04044765576829013,-0.19880870027453124,0,0,0,1
-1.296323274662659,0.2034187957682901,-0.42082635027453125,0,0,0,1
-1.296323274662659,0.2034187957682901,-0.42082635027453125,0,0,0,1
0.7170796553373409,0.07857135576829014,0.03219827972546878,0,0,0,1
0.7170796553373409,0.07857135576829014,0.03219827972546878,0,0,0,1
1.482618825337341,0.025193381768290127,-0.0018701866745312254,0,0,0,1
-0.0359377696626591,0.6037304157682901,0.08474096472546877,0,0,0,1
-0.5157646746626591,0.8981587157682901,-0.03879276027453123,0,0,0,1
0.2592930953373409,0.9342354157682902,-0.08698550027453122,0,0,0,1
0.2592930953373409,0.9342354157682902,-0.08698550027453122,0,0,0,1
0.8797745853373409,0.2821536157682901,-0.9800065802745311,0,0,0,1
0.8797745853373409,0.2821536157682901,-0.9800065802745311,0,0,0,1
-0.3250164746626591,-1.41578028423171,-0.2694926602745312,0,0,0,1
-1.888176474662659,-1.15970278423171,0.18129273972546878,0,0,0,1
-1.918072174662659,-0.6063527242317098,0.9290761597254689,0,0,0,1
-0.1324000246626591,-0.4143276342317099,1.105202919725469,0,0,0,1
-0.1324000246626591,-0.4143276342317099,1.105202919725469,0,0,0,1
1.467073925337341,0.46925027576829015,0.24197455972546877,0,0,0,1
1.080877825337341,0.39111639576829016,-0.33626643027453124,0,0,0,1
1.080877825337341,0.39111639576829016,-0.33626643027453124,0,0,0,1
1.080877825337341,0.39111639576829016,-0.33626643027453124,0,0,0,1
0.6088032853373408,0.06873179576829012,-0.6833213802745312,0,0,0,1
-1.846706374662659,0.8855976657682901,-1.1969680802745313,0,0,0,1
-0.7260193746626591,0.6128173157682901,-0.7191866802745311,0,0,0,1
1.566043425337341,-0.7232892342317099,0.15141566972546877,0,0,0,1
1.566043425337341,-0.7232892342317099,0.15141566972546877,0,0,0,1
1.566043425337341,-0.7232892342317099,0.15141566972546877,0,0,0,1
-0.2561487946626591,0.35361667576829015,0.7981304797254688,0,0,0,1
-0.2561487946626591,0.35361667576829015,0.7981304797254688,0,0,0,1
-1.148695474662659,0.31257327576829014,0.3080907697254688,0,0,0,1
-1.148695474662659,0.31257327576829014,0.3080907697254688,0,0,0,1
-1.148695474662659,0.31257327576829014,0.3080907697254688,0,0,0,1
1.357950725337341,-0.8842109842317099,-0.5279510302745312,0,0,0,1
1.363197825337341,-0.9825427842317098,-0.49807242027453125,0,0,0,1
1.400800225337341,-0.7233506242317098,-0.3800146802745312,0,0,0,1
0.2099671553373409,0.38573701576829017,0.33890565972546877,0,0,0,1
-2.596867974662659,2.05301331576829,0.24104508972546876,0,0,0,1
-2.596867974662659,2.05301331576829,0.24104508972546876,0,0,0,1
0.062464255337340895,-0.5082679242317099,-0.3231064402745312,0,0,0,1
1.377734725337341,-1.44476178423171,-0.7769030802745311,0,0,0,1
2.6772027253373407,-1.62996048423171,-0.7983845802745312,0,0,0,1
-2.462085674662659,0.5165550157682901,0.35152223972546875,0,0,0,1
-2.462085674662659,0.5165550157682901,0.35152223972546875,0,0,0,1
0.049280659337340896,-0.5575539242317099,0.20072647972546878,0,0,0,1
2.4594169253373406,-0.8294261542317098,-0.27886798027453125,0,0,0,1
3.736530725337341,-0.8332085442317099,-0.7252516802745311,0,0,0,1
2.9404673253373406,-0.5917840842317098,-1.109795080274531,0,0,0,1
2.9404673253373406,-0.5917840842317098,-1.109795080274531,0,0,0,1
-3.132673674662659,1.76267361576829,0.4451242397254688,0,0,0,1
-3.132673674662659,1.76267361576829,0.4451242397254688,0,0,0,1
-3.561734674662659,1.80043081576829,1.0900664197254688,0,0,0,1
1.306844225337341,-1.37014158423171,0.7887714797254688,0,0,0,1
1.306844225337341,-1.37014158423171,0.7887714797254688,0,0,0,1
2.4295421253373406,-1.6016101842317099,0.3639556497254688,0,0,0,1
2.7698207253373406,-1.61356108423171,0.11183639972546877,0,0,0,1
-0.1933998946626591,-0.5329698142317099,-0.4735919502745312,0,0,0,1
-2.672858274662659,0.6966764157682901,-0.8158085802745312,0,0,0,1
-2.672858274662659,0.6966764157682901,-0.8158085802745312,0,0,0,1
-1.267649174662659,0.5825116157682901,-0.06249943527453122,0,0,0,1
0.11167194033734089,0.1578453857682901,0.08120986972546877,0,0,0,1
1.752333225337341,-0.2773808642317099,0.3181933997254688,0,0,0,1
1.752333225337341,-0.2773808642317099,0.3181933997254688,0,0,0,1
3.1869597253373407,-0.7028891242317099,0.0031438757254687753,0,0,0,1
2.8513102253373406,-0.41503988423170984,-0.3760919802745312,0,0,0,1
-1.915136774662659,0.6985950657682901,0.44726767972546877,0,0,0,1
-3.2460460746626594,0.9229880157682901,0.36548479972546877,0,0,0,1
-2.6118816746626594,0.34195341576829014,-0.22182444027453124,0,0,0,1
-2.6118816746626594,0.34195341576829014,-0.22182444027453124,0,0,0,1
2.038870325337341,-1.15079928423171,-1.4160927802745311,0,0,0,1
3.173877225337341,-1.13376488423171,-0.9054744802745311,0,0,0,1
