acc_x,acc_y,acc_z,gyro_x,gyro_y,gyro_z,label
-2.0351538746626594,0.09180288576829013,0.5094616197254688,0,0,0,1
-2.0351538746626594,0.09180288576829013,0.5094616197254688,0,0,0,1
-3.020900674662659,0.46657257576829014,-0.19706175027453124,0,0,0,1
-1.111950374662659,-0.35860368423170985,-0.6642010802745312,0,0,0,1
1.872884325337341,-1.42606928423171,-0.7912440802745312,0,0,0,1
1.872884325337341,-1.42606928423171,-0.7912440802745312,0,0,0,1
1.872884325337341,-1.42606928423171,-0.7912440802745312,0,0,0,1
1.613150125337341,-0.4572154842317099,-0.34233585027453123,0,0,0,1
1.435392825337341,0.8622773157682901,0.23685457972546878,0,0,0,1
-0.7518467746626591,1.12001511576829,0.5309047197254688,0,0,0,1
-1.763841174662659,-1.00401278423171,0.31182481972546877,0,0,0,1
-1.111573674662659,-2.3288926842317097,0.3386707597254688,0,0,0,1
-1.111573674662659,-2.3288926842317097,0.3386707597254688,0,0,0,1
0.9956546253373408,1.7999427157682901,0.9327857797254688,0,0,0,1
0.9956546253373408,1.7999427157682901,0.9327857797254688,0,0,0,1
2.256497925337341,2.30027511576829,0.09023603972546877,0,0,0,1
0.1530366153373409,0.33802949576829017,-1.560723080274531,0,0,0,1
-2.116404474662659,-0.6312755842317098,-2.2411966802745313,0,0,0,1
-2.116404474662659,-0.6312755842317098,-2.2411966802745313,0,0,0,1
-2.1819524746626593,-1.26575768423171,-2.0308003802745316,0,0,0,1
-0.1808581146626591,-1.54863358423171,-0.2530933902745312,0,0,0,1
-0.1808581146626591,-1.54863358423171,-0.2530933902745312,0,0,0,1
1.024103625337341,0.7718298157682901,1.7253671197254687,0,0,0,1
0.1546883753373409,0.7690498157682901,0.8947030597254688,0,0,0,1
0.1546883753373409,0.7690498157682901,0.8947030597254688,0,0,0,1
-0.7688193146626591,0.37643026576829014,0.5445375697254689,0,0,0,1
-0.7688193146626591,0.37643026576829014,0.5445375697254689,0,0,0,1
-0.5394911746626591,-0.5678870842317099,-1.4721289802745312,0,0,0,1
1.196903725337341,0.09357340976829014,-1.8506205802745312,0,0,0,1
1.196903725337341,0.09357340976829014,-1.8506205802745312,0,0,0,1
1.509693625337341,0.6825160157682901,-1.536537480274531,0,0,0,1
-0.07678936466265911,0.45494233576829013,-0.8632950802745312,0,0,0,1
-0.07678936466265911,0.45494233576829013,-0.8632950802745312,0,0,0,1
-0.6705145746626591,-0.1530501042317099,0.19782140972546877,0,0,0,1
0.6539054253373409,-0.48647050423170984,1.046261419725469,0,0,0,1
0.6539054253373409,-0.48647050423170984,1.046261419725469,0,0,0,1
0.6024604253373409,-0.6716907842317098,1.1072732197254689,0,0,0,1
0.8871293253373409,-0.1868367042317099,0.5708182697254688,0,0,0,1
0.7978282253373409,-0.38589183423170986,-0.24825999027453122,0,0,0,1
0.7978282253373409,-0.38589183423170986,-0.24825999027453122,0,0,0,1
-0.7205929746626591,0.34379519576829015,-0.7807629402745312,0,0,0,1
-0.7205929746626591,0.34379519576829015,-0.7807629402745312,0,0,0,1
-0.5481810446626592,1.52218201576829,-0.5087924802745312,0,0,0,1
-0.5481810446626592,1.52218201576829,-0.5087924802745312,0,0,0,1
0.7495646653373409,0.30407051576829014,-0.6307115302745312,0,0,0,1
0.7495646653373409,0.30407051576829014,-0.6307115302745312,0,0,0,1
2.723717225337341,0.29842959576829015,-0.3471547102745312,0,0,0,1
2.723717225337341,0.29842959576829015,-0.3471547102745312,0,0,0,1
0.2933411753373409,0.23418922576829013,0.07352342972546877,0,0,0,1
0.2933411753373409,0.23418922576829013,0.07352342972546877,0,0,0,1
-1.858684974662659,-0.1691145742317099,0.6833095197254688,0,0,0,1
-2.0684780746626594,-0.7860712842317099,1.1690460197254688,0,0,0,1
-2.0684780746626594,-0.7860712842317099,1.1690460197254688,0,0,0,1
-1.023508574662659,-0.8329162842317098,0.8815015797254688,0,0,0,1
0.6489587253373409,0.39175497576829016,0.5157697197254688,0,0,0,1
2.4404149253373406,1.39875961576829,0.06727542972546877,0,0,0,1
2.5672517253373406,1.73725011576829,-0.7522721802745311,0,0,0,1
2.5672517253373406,1.73725011576829,-0.7522721802745311,0,0,0,1
0.6715197753373409,0.7892015157682901,-1.4643654802745312,0,0,0,1
0.6715197753373409,0.7892015157682901,-1.4643654802745312,0,0,0,1
-1.739616874662659,-1.0336414842317099,-1.7845430802745312,0,0,0,1
-1.513699074662659,0.46147616576829015,-0.5734511302745312,0,0,0,1
0.8342375953373409,1.52652601576829,1.2426327197254687,0,0,0,1
0.8342375953373409,1.52652601576829,1.2426327197254687,0,0,0,1
2.049318725337341,-0.6502326842317099,0.21506365972546876,0,0,0,1
2.049318725337341,-0.6502326842317099,0.21506365972546876,0,0,0,1
1.270318525337341,-0.8458687442317099,-0.3957336802745312,0,0,0,1
0.11907531533734089,-0.09888164423170986,-0.3196668802745312,0,0,0,1
0.11907531533734089,-0.09888164423170986,-0.3196668802745312,0,0,0,1
-2.3714552746626594,1.19726241576829,-0.7816911802745312,0,0,0,1
-2.3714552746626594,1.19726241576829,-0.7816911802745312,0,0,0,1
-1.046454874662659,0.7788855657682902,-0.8719933802745312,0,0,0,1
1.291193525337341,0.37734851576829015,-0.8696196402745312,0,0,0,1
2.532899425337341,0.40802861576829014,-0.7634201802745312,0,0,0,1
1.207376925337341,0.45297225576829014,-0.2549451902745312,0,0,0,1
1.207376925337341,0.45297225576829014,-0.2549451902745312,0,0,0,1
1.207376925337341,0.45297225576829014,-0.2549451902745312,0,0,0,1
1.207376925337341,0.45297225576829014,-0.2549451902745312,0,0,0,1
-1.755383474662659,-0.36114077423170987,0.34135367972546876,0,0,0,1
-0.8747553746626591,0.7521466157682901,0.9553758197254688,0,0,0,1
0.1636185853373409,1.02012651576829,0.7694014597254688,0,0,0,1
0.8073325253373409,0.8103422157682901,-0.10089025027453123,0,0,0,1
1.663102625337341,-0.7494129842317099,-1.4753935802745313,0,0,0,1
1.663102625337341,-0.7494129842317099,-1.4753935802745313,0,0,0,1
-1.441029074662659,1.11754301576829,-0.5675065202745312,0,0,0,1
-1.441029074662659,1.11754301576829,-0.5675065202745312,0,0,0,1
-1.441029074662659,1.11754301576829,-0.5675065202745312,0,0,0,1
-0.5500397746626591,0.6526338157682902,-0.3537896002745312,0,0,0,1
-0.05606125166265911,-0.005423289231709871,0.5920785197254689,0,0,0,1
0.7687592653373408,-0.30603001423170983,0.2739723597254688,0,0,0,1
0.7687592653373408,-0.30603001423170983,0.2739723597254688,0,0,0,1
-0.6013283746626591,0.9642830157682901,-0.3060878802745312,0,0,0,1
-0.6013283746626591,0.9642830157682901,-0.3060878802745312,0,0,0,1
-0.6013283746626591,0.9642830157682901,-0.3060878802745312,0,0,0,1
-0.9049706346626591,1.55223081576829,-0.5026451102745312,0,0,0,1
-0.9049706346626591,1.55223081576829,-0.5026451102745312,0,0,0,1
0.7038321653373409,-0.10450558023170987,-0.9576187402745312,0,0,0,1
0.8114075853373409,0.1519934257682901,0.15112217972546876,0,0,0,1
0.5124831253373409,0.5327147157682901,0.6880879197254688,0,0,0,1
0.5124831253373409,0.5327147157682901,0.6880879197254688,0,0,0,1
-0.0899205046626591,0.6187324657682901,0.8987531197254688,0,0,0,1
-0.5685858746626591,-1.7779000842317099,0.18589713972546876,0,0,0,1
-0.5685858746626591,-1.7779000842317099,0.18589713972546876,0,0,0,1
0.8281483853373409,-1.98970748423171,0.22045054972546876,0,0,0,1
0.7141204253373409,0.41133325576829016,-0.13314775027453124,0,0,0,1
0.7141204253373409,0.41133325576829016,-0.13314775027453124,0,0,0,1
0.7141204253373409,0.41133325576829016,-0.13314775027453124,0,0,0,1
0.7141204253373409,0.41133325576829016,-0.13314775027453124,0,0,0,1
-0.7962527146626591,0.4169145457682901,-0.09136149427453123,0,0,0,1
-0.6315150146626591,0.6611798157682901,-0.43602130027453123,0,0,0,1
-0.6315150146626591,0.6611798157682901,-0.43602130027453123,0,0,0,1
-0.6315150146626591,0.6611798157682901,-0.43602130027453123,0,0,0,1
-0.07382057466265911,0.43074374576829016,-0.8318904802745312,0,0,0,1
-0.07382057466265911,0.43074374576829016,-0.8318904802745312,0,0,0,1
-0.0899929846626591,0.49023841576829014,-0.5030173402745312,0,0,0,1
-0.0899929846626591,0.49023841576829014,-0.5030173402745312,0,0,0,1
-0.0899929846626591,0.49023841576829014,-0.5030173402745312,0,0,0,1
0.4263291553373409,-0.9368942842317098,-0.7805080802745312,0,0,0,1
0.4263291553373409,-0.9368942842317098,-0.7805080802745312,0,0,0,1
1.462346525337341,-2.3479570842317097,-0.4674767602745312,0,0,0,1
1.462346525337341,-2.3479570842317097,-0.4674767602745312,0,0,0,1
1.462346525337341,-2.3479570842317097,-0.4674767602745312,0,0,0,1
-1.460155974662659,1.69177641576829,0.06721588972546877,0,0,0,1
-1.460155974662659,1.69177641576829,0.06721588972546877,0,0,0,1
-0.6552662746626591,0.7716629157682902,0.3748712797254688,0,0,0,1
-0.6552662746626591,0.7716629157682902,0.3748712797254688,0,0,0,1
-0.4704289246626591,-0.08052031423170987,-0.6147073802745312,0,0,0,1
-0.4704289246626591,-0.08052031423170987,-0.6147073802745312,0,0,0,1
-0.4704289246626591,-0.08052031423170987,-0.6147073802745312,0,0,0,1
1.885484225337341,-0.8927254542317099,-0.7413989802745312,0,0,0,1
2.0975280253373407,0.5553518157682902,-0.5789946802745312,0,0,0,1
2.0975280253373407,0.5553518157682902,-0.5789946802745312,0,0,0,1
2.0975280253373407,0.5553518157682902,-0.5789946802745312,0,0,0,1
-2.1731628746626592,1.24075101576829,0.5153804197254688,0,0,0,1
-3.2058724746626592,-0.5298878842317098,0.4139051197254688,0,0,0,1
-3.2058724746626592,-0.5298878842317098,0.4139051197254688,0,0,0,1
-2.9942030746626593,-1.26691418423171,1.3796838197254688,0,0,0,1
-1.120706074662659,-0.7572450442317099,1.5555698197254688,0,0,0,1
1.902462525337341,-0.12609608423170987,1.2278927197254688,0,0,0,1
1.902462525337341,-0.12609608423170987,1.2278927197254688,0,0,0,1
3.255831225337341,-0.7006360842317099,-0.6103543402745312,0,0,0,1
3.255831225337341,-0.7006360842317099,-0.6103543402745312,0,0,0,1
3.255831225337341,-0.7006360842317099,-0.6103543402745312,0,0,0,1
-0.8958925746626591,0.8367258157682902,-0.8072972802745312,0,0,0,1
-2.896272274662659,1.83620721576829,0.23041202972546876,0,0,0,1
-1.398132774662659,0.8216980157682902,0.5736520597254688,0,0,0,1
-1.398132774662659,0.8216980157682902,0.5736520597254688,0,0,0,1
3.110127025337341,-0.6126318842317099,0.31472929972546876,0,0,0,1
3.387930425337341,0.13485057576829013,0.29840411972546876,0,0,0,1
3.387930425337341,0.13485057576829013,0.29840411972546876,0,0,0,1
1.610225225337341,0.2264866457682901,-0.12262586027453123,0,0,0,1
1.610225225337341,0.2264866457682901,-0.12262586027453123,0,0,0,1
-3.0421270746626594,-1.44462288423171,0.2954535197254688,0,0,0,1
-3.610037774662659,-0.9078417842317098,0.4040425197254688,0,0,0,1
-2.6622566746626593,0.31630285576829015,1.1659504197254689,0,0,0,1
-2.6622566746626593,0.31630285576829015,1.1659504197254689,0,0,0,1
2.8376937253373407,1.41124701576829,0.29303891972546875,0,0,0,1
2.8376937253373407,1.41124701576829,0.29303891972546875,0,0,0,1
4.003045725337341,0.29653136576829014,-0.17305246027453122,0,0,0,1
3.489271725337341,-0.7767384842317099,-0.9580068802745312,0,0,0,1
1.799867125337341,-1.37520298423171,-1.523778480274531,0,0,0,1
-3.810621274662659,0.5798648757682902,-0.04997256527453122,0,0,0,1
-4.110921874662659,1.0219519157682901,0.4253003897254688,0,0,0,1
-4.110921874662659,1.0219519157682901,0.4253003897254688,0,0,0,1
-1.425765474662659,0.6157379157682902,1.469952719725469,0,0,0,1
-1.425765474662659,0.6157379157682902,1.469952719725469,0,0,0,1
0.4216599653373409,0.42738069576829013,1.2241787197254688,0,0,0,1
0.4216599653373409,0.42738069576829013,1.2241787197254688,0,0,0,1
2.9572807253373408,-0.2096575642317099,0.16024192972546877,0,0,0,1
3.287592425337341,-1.07766938423171,-0.8067542802745312,0,0,0,1
1.574934525337341,-1.19633978423171,-1.2901490802745312,0,0,0,1
1.574934525337341,-1.19633978423171,-1.2901490802745312,0,0,0,1
-2.809634674662659,0.36861403576829016,0.23329838972546876,0,0,0,1
-2.809634674662659,0.36861403576829016,0.23329838972546876,0,0,0,1
-2.809634674662659,0.36861403576829016,0.23329838972546876,0,0,0,1
-3.018512274662659,0.9095806157682902,0.5443231197254689,0,0,0,1
0.5816588553373409,-0.12522457423170988,0.20453234972546877,0,0,0,1
2.0182490253373406,-0.4216400242317099,0.14972927972546876,0,0,0,1
2.0182490253373406,-0.4216400242317099,0.14972927972546876,0,0,0,1
2.0182490253373406,-0.4216400242317099,0.14972927972546876,0,0,0,1
0.7776751653373409,0.33117861576829016,0.049048332725468775,0,0,0,1
0.7776751653373409,0.33117861576829016,0.049048332725468775,0,0,0,1
-0.0568337276626591,-0.29541690423170985,0.14044477972546876,0,0,0,1
0.04257442133734089,0.6562724157682901,0.16976841972546877,0,0,0,1
0.2618031653373409,0.6140539157682902,0.26559265972546875,0,0,0,1
-0.26024483466265913,-0.26664612423170986,0.11940666972546876,0,0,0,1
-0.26024483466265913,-0.26664612423170986,0.11940666972546876,0,0,0,1
-0.26024483466265913,-0.26664612423170986,0.11940666972546876,0,0,0,1
-0.26024483466265913,-0.26664612423170986,0.11940666972546876,0,0,0,1
-1.926582274662659,-1.16126008423171,0.6161450197254689,0,0,0,1
0.3113141253373409,-0.5140572842317098,1.3997721197254689,0,0,0,1
2.110131725337341,1.0588634157682901,0.40502271972546877,0,0,0,1
1.965859925337341,-0.06325004423170986,-0.2651859802745312,0,0,0,1
1.834935725337341,-1.11206288423171,-0.6217839802745312,0,0,0,1
-0.4381317946626591,-0.9434748842317099,-0.15412208027453123,0,0,0,1
-0.4381317946626591,-0.9434748842317099,-0.15412208027453123,0,0,0,1
-3.075255874662659,0.41235114576829013,0.30952819972546874,0,0,0,1
0.061762345337340895,1.1465476157682901,1.5991419197254688,0,0,0,1
1.431227225337341,-0.12412155423170988,1.3463497197254688,0,0,0,1
1.793074125337341,-1.22184348423171,0.6124824197254688,0,0,0,1
1.793074125337341,-1.22184348423171,0.6124824197254688,0,0,0,1
2.0489392253373406,-0.5441195842317098,0.3580879897254688,0,0,0,1
0.056133763337340895,0.8538368157682902,0.16554995972546876,0,0,0,1
0.056133763337340895,0.8538368157682902,0.16554995972546876,0,0,0,1
-1.680263974662659,1.44054371576829,1.2342559197254688,0,0,0,1
0.0291733903373409,0.1862093157682901,0.8583487197254688,0,0,0,1
2.017598725337341,-0.5853727842317099,0.06532319972546877,0,0,0,1
1.641827125337341,-0.5323516542317098,-0.12618843027453122,0,0,0,1
1.640759925337341,-0.5391093342317098,-0.13699332027453123,0,0,0,1
1.640759925337341,-0.5391093342317098,-0.13699332027453123,0,0,0,1
-1.745941574662659,0.3994662957682901,0.7918306897254688,0,0,0,1
-1.745941574662659,0.3994662957682901,0.7918306897254688,0,0,0,1
-1.745941574662659,0.3994662957682901,0.7918306897254688,0,0,0,1
0.5023036253373409,0.9012993757682901,0.7590524197254688,0,0,0,1
2.462863425337341,-1.50249808423171,0.08380576972546877,0,0,0,1
2.462863425337341,-1.50249808423171,0.08380576972546877,0,0,0,1
1.588581625337341,-1.45085188423171,-0.05143395227453122,0,0,0,1
-0.8195700746626591,0.8372336857682902,0.8415951197254689,0,0,0,1
-0.8195700746626591,0.8372336857682902,0.8415951197254689,0,0,0,1
-0.9389366746626591,1.95133711576829,1.5884089197254687,0,0,0,1
-0.9389366746626591,1.95133711576829,1.5884089197254687,0,0,0,1
-1.113759474662659,1.74368311576829,1.3282388197254689,0,0,0,1
-1.113759474662659,1.74368311576829,1.3282388197254689,0,0,0,1
-0.7982582746626591,-0.2528221842317099,0.25663193972546877,0,0,0,1
-0.7982582746626591,-0.2528221842317099,0.25663193972546877,0,0,0,1
