acc_x,acc_y,acc_z,gyro_x,gyro_y,gyro_z,label
1.912970125337341,0.7481718157682902,0.3377483797254688,0,0,0,1
1.912970125337341,0.7481718157682902,0.3377483797254688,0,0,0,1
1.938614425337341,0.38202853576829016,0.27138581972546877,0,0,0,1
-3.0534877746626594,-1.31676518423171,-1.0074236102745313,0,0,0,1
-3.0534877746626594,-1.31676518423171,-1.0074236102745313,0,0,0,1
-3.442948274662659,-0.5012346342317099,-0.41636440027453125,0,0,0,1
-1.985219474662659,0.9305473757682902,0.34347369972546876,0,0,0,1
-0.0439591246626591,1.78194761576829,0.5047778797254688,0,0,0,1
4.441460125337341,0.37110553576829014,-0.5608184802745312,0,0,0,1
4.441460125337341,0.37110553576829014,-0.5608184802745312,0,0,0,1
4.584561725337341,-0.33566443423170983,-0.8513269802745311,0,0,0,1
2.644676725337341,-0.2382351242317099,-1.8130695802745311,0,0,0,1
2.644676725337341,-0.2382351242317099,-1.8130695802745311,0,0,0,1
-3.452491274662659,-0.10478968423170987,-1.229779280274531,0,0,0,1
-3.452491274662659,-0.10478968423170987,-1.229779280274531,0,0,0,1
-3.452491274662659,-0.10478968423170987,-1.229779280274531,0,0,0,1
-4.731748274662659,-0.10702459423170987,0.4039981197254688,0,0,0,1
-0.1637825746626591,-0.15966548423170987,1.513126619725469,0,0,0,1
-0.1637825746626591,-0.15966548423170987,1.513126619725469,0,0,0,1
3.1197534253373407,-0.11624626423170988,0.6501186797254688,0,0,0,1
4.515890725337341,-0.7270166842317098,-0.4110756202745312,0,0,0,1
3.774099725337341,-0.6143307842317098,-1.4902782802745311,0,0,0,1
3.774099725337341,-0.6143307842317098,-1.4902782802745311,0,0,0,1
2.264670825337341,-0.8475068842317098,-2.9110119802745316,0,0,0,1
-0.45461797466265913,-0.9421167142317098,-2.4735925802745315,0,0,0,1
-3.957510974662659,0.1484173457682901,-1.4390983802745312,0,0,0,1
-3.957510974662659,0.1484173457682901,-1.4390983802745312,0,0,0,1
-5.61910957466266,1.1999018157682901,0.11734619972546878,0,0,0,1
-1.645849674662659,-0.1894488742317099,1.448338719725469,0,0,0,1
2.3524927253373407,-1.48104618423171,-0.5848357802745312,0,0,0,1
2.3524927253373407,-1.48104618423171,-0.5848357802745312,0,0,0,1
3.5390429253373408,-1.2689010842317099,-1.2924873802745311,0,0,0,1
1.882424825337341,-0.17288116423170988,-2.1795318802745314,0,0,0,1
-1.222650074662659,0.5551516157682902,-1.9503829802745312,0,0,0,1
-1.222650074662659,0.5551516157682902,-1.9503829802745312,0,0,0,1
-3.6379317746626594,1.31030071576829,-1.1840689802745312,0,0,0,1
-2.7514576746626593,1.2192237157682901,-0.9970081202745312,0,0,0,1
-2.7514576746626593,1.2192237157682901,-0.9970081202745312,0,0,0,1
-0.5200266746626591,0.07670815576829013,-0.5339708802745312,0,0,0,1
0.3292346253373409,-1.27572118423171,-0.8968576802745312,0,0,0,1
-1.196753974662659,-1.38339328423171,-0.9973522802745312,0,0,0,1
-1.196753974662659,-1.38339328423171,-0.9973522802745312,0,0,0,1
-1.813466574662659,-1.65607268423171,-0.7163644102745311,0,0,0,1
-1.876465274662659,-1.80935588423171,-0.014830501274531225,0,0,0,1
-1.876465274662659,-1.80935588423171,-0.014830501274531225,0,0,0,1
1.937901025337341,1.27692751576829,1.2107534197254688,0,0,0,1
1.937901025337341,1.27692751576829,1.2107534197254688,0,0,0,1
4.312032225337341,2.5132723157682904,0.8252752697254688,0,0,0,1
2.014233125337341,1.56730211576829,-1.0201743802745311,0,0,0,1
-0.4699416046626591,-1.73654788423171,-0.40293148027453124,0,0,0,1
-3.0446028746626594,-2.5934110842317097,-0.18706110027453124,0,0,0,1
-3.0446028746626594,-2.5934110842317097,-0.18706110027453124,0,0,0,1
-5.387172274662659,0.1976296757682901,1.8565443197254687,0,0,0,1
-5.387172274662659,0.1976296757682901,1.8565443197254687,0,0,0,1
-3.480319974662659,4.18162631576829,4.184674019725469,0,0,0,1
2.243303725337341,4.94616461576829,2.8458778197254686,0,0,0,1
6.414538725337341,3.4151039157682903,1.8752256197254689,0,0,0,1
6.414538725337341,3.4151039157682903,1.8752256197254689,0,0,0,1
5.2517981253373405,-0.03247056423170987,-3.124405180274531,0,0,0,1
5.2517981253373405,-0.03247056423170987,-3.124405180274531,0,0,0,1
0.3571067053373409,-2.31227038423171,-5.189489680274532,0,0,0,1
0.3571067053373409,-2.31227038423171,-5.189489680274532,0,0,0,1
-8.021808274662659,0.44148375576829013,1.8950352197254687,0,0,0,1
-8.021808274662659,0.44148375576829013,1.8950352197254687,0,0,0,1
-1.156509874662659,-1.93346088423171,5.717431719725469,0,0,0,1
3.0429702253373407,1.10955811576829,0.3418581797254688,0,0,0,1
5.9356704253373405,0.5670738157682902,-2.8725039802745314,0,0,0,1
5.618691025337341,-1.21716378423171,-8.40497168027453,0,0,0,1
0.3281083253373409,-1.33669288423171,-0.15152398027453123,0,0,0,1
0.3281083253373409,-1.33669288423171,-0.15152398027453123,0,0,0,1
-6.07859557466266,2.3086145157682902,0.9659369897254688,0,0,0,1
-2.6561102746626593,2.5319011157682905,5.837026319725469,0,0,0,1
0.1740708553373409,0.02037021876829013,2.7159306197254685,0,0,0,1
0.1740708553373409,0.02037021876829013,2.7159306197254685,0,0,0,1
0.1740708553373409,0.02037021876829013,2.7159306197254685,0,0,0,1
0.1740708553373409,0.02037021876829013,2.7159306197254685,0,0,0,1
-2.144159774662659,1.99223441576829,-4.114279680274532,0,0,0,1
-3.806329274662659,1.14039981576829,-1.6777082802745311,0,0,0,1
-4.033799274662659,-0.5008806842317098,0.9050718197254688,0,0,0,1
-3.968086674662659,-0.9474613442317098,1.9984412197254688,0,0,0,1
-3.968086674662659,-0.9474613442317098,1.9984412197254688,0,0,0,1
-2.1288932746626594,0.15784888576829012,4.232282319725469,0,0,0,1
1.335786325337341,1.07727611576829,3.4984681197254686,0,0,0,1
4.521743325337341,0.4118312157682901,2.7257149197254686,0,0,0,1
4.521743325337341,0.4118312157682901,2.7257149197254686,0,0,0,1
3.2228007253373407,-0.45842186423170983,-0.9893014802745311,0,0,0,1
0.3953280653373409,-0.2181527242317099,-2.2070676802745313,0,0,0,1
-3.060156774662659,0.39966239576829016,-2.7705161802745315,0,0,0,1
-3.060156774662659,0.39966239576829016,-2.7705161802745315,0,0,0,1
-3.060156774662659,0.39966239576829016,-2.7705161802745315,0,0,0,1
-5.157640874662659,1.16814851576829,-0.5204361802745312,0,0,0,1
-5.157640874662659,1.16814851576829,-0.5204361802745312,0,0,0,1
-4.3257627746626595,-0.004978757631709871,-0.5206623402745312,0,0,0,1
-1.761393074662659,-1.34416028423171,1.258908719725469,0,0,0,1
0.2830796353373409,-1.31965608423171,1.9500036197254689,0,0,0,1
2.6218257253373407,1.37941531576829,2.4079296197254685,0,0,0,1
2.6218257253373407,1.50474951576829,0.6040711197254688,0,0,0,1
0.5188136253373409,-0.12389535423170987,-1.2626456802745312,0,0,0,1
0.5188136253373409,-0.12389535423170987,-1.2626456802745312,0,0,0,1
0.5188136253373409,-0.12389535423170987,-1.2626456802745312,0,0,0,1
-4.017137074662659,1.25971531576829,-0.5028379302745312,0,0,0,1
-1.626827674662659,2.95101831576829,0.6057621497254688,0,0,0,1
1.645658025337341,2.79453111576829,0.7493886197254688,0,0,0,1
3.5858130253373406,0.14690049576829012,-0.23411980027453122,0,0,0,1
3.5858130253373406,0.14690049576829012,-0.23411980027453122,0,0,0,1
2.269743425337341,-0.8912229842317099,-1.1981061802745312,0,0,0,1
0.8308816253373409,-1.10688708423171,-1.3996062802745313,0,0,0,1
-1.253867574662659,-0.5977134842317099,-1.189918880274531,0,0,0,1
-1.253867574662659,-0.5977134842317099,-1.189918880274531,0,0,0,1
-1.253867574662659,-0.5977134842317099,-1.189918880274531,0,0,0,1
-3.0694188746626594,1.27627461576829,-0.008314879274531225,0,0,0,1
-3.0694188746626594,1.27627461576829,-0.008314879274531225,0,0,0,1
1.296420625337341,-0.006390955231709872,0.3414945197254688,0,0,0,1
1.706149625337341,0.37238128576829016,-0.0036486702745312256,0,0,0,1
0.8071961553373409,-0.1267174342317099,0.08965798972546878,0,0,0,1
-1.422075774662659,-0.2410799942317099,-0.34419873027453124,0,0,0,1
-3.0114832746626594,-0.11951434423170987,-0.4899182602745312,0,0,0,1
-2.162565274662659,0.25736256576829014,-0.5226935502745311,0,0,0,1
-2.162565274662659,0.25736256576829014,-0.5226935502745311,0,0,0,1
2.280870025337341,0.31719041576829016,-0.5311802802745311,0,0,0,1
2.280870025337341,0.31719041576829016,-0.5311802802745311,0,0,0,1
1.475179225337341,1.21859071576829,-0.6839157802745311,0,0,0,1
2.280870025337341,0.31719041576829016,-0.5311802802745311,0,0,0,1
1.242809825337341,-0.9684285842317099,-1.1331717802745311,0,0,0,1
-0.9766526046626591,-1.2563241842317099,-1.0263947802745312,0,0,0,1
-1.796648474662659,0.20556369576829012,1.1417582197254688,0,0,0,1
-1.796648474662659,0.20556369576829012,1.1417582197254688,0,0,0,1
0.3841681653373409,1.72233671576829,0.6700694797254688,0,0,0,1
1.705718525337341,0.4860248757682901,0.12906643972546877,0,0,0,1
1.036738925337341,-1.49221988423171,-0.5020360102745312,0,0,0,1
1.036738925337341,-1.49221988423171,-0.5020360102745312,0,0,0,1
1.036738925337341,-1.49221988423171,-0.5020360102745312,0,0,0,1
1.036738925337341,-1.49221988423171,-0.5020360102745312,0,0,0,1
-0.5461630746626591,0.46528781576829015,0.35569311972546874,0,0,0,1
0.4485678853373409,1.04412441576829,0.6889723797254689,0,0,0,1
0.4485678853373409,1.04412441576829,0.6889723797254689,0,0,0,1
1.236878925337341,1.2730319157682901,0.7321188697254688,0,0,0,1
1.801294825337341,0.6255491157682902,0.36779036972546875,0,0,0,1
1.801294825337341,0.6255491157682902,0.36779036972546875,0,0,0,1
1.640426125337341,-0.42209620423170985,0.4891044797254688,0,0,0,1
0.7318730253373409,-0.8359204342317098,0.04553529472546878,0,0,0,1
0.22610236533734088,-0.7940847842317098,-0.4840064402745312,0,0,0,1
-0.046199304662659105,-1.08906438423171,-0.3101222802745312,0,0,0,1
-0.046199304662659105,-1.08906438423171,-0.3101222802745312,0,0,0,1
0.6780677253373409,0.6744443157682901,0.8460042197254688,0,0,0,1
0.6780677253373409,0.6744443157682901,0.8460042197254688,0,0,0,1
0.6958375253373409,1.76479601576829,0.6486509197254688,0,0,0,1
0.6958375253373409,1.76479601576829,0.6486509197254688,0,0,0,1
0.9650778953373409,1.6977569157682901,0.4002396197254688,0,0,0,1
2.2445559253373406,0.17424588576829012,0.08736547972546876,0,0,0,1
2.8134570253373408,-1.34319578423171,-0.13096979427453123,0,0,0,1
0.5594067753373408,-1.58108028423171,-1.1103237802745312,0,0,0,1
-1.865481374662659,-0.8332681442317098,-1.3099164802745311,0,0,0,1
-1.847680574662659,-0.6972920842317099,-0.6121529802745311,0,0,0,1
-1.847680574662659,-0.6972920842317099,-0.6121529802745311,0,0,0,1
-0.8979754246626591,0.33805871576829016,0.5127699697254688,0,0,0,1
-0.6385311746626591,1.95868981576829,0.5599233197254688,0,0,0,1
3.298632125337341,0.39178185576829017,-0.08871177027453123,0,0,0,1
1.226283525337341,-1.84155118423171,-1.2921698802745312,0,0,0,1
1.226283525337341,-1.84155118423171,-1.2921698802745312,0,0,0,1
1.226283525337341,-1.84155118423171,-1.2921698802745312,0,0,0,1
-0.8635487346626591,-1.01207258423171,-1.2009295802745312,0,0,0,1
-0.8635487346626591,-1.01207258423171,-1.2009295802745312,0,0,0,1
-2.517753074662659,0.29595823576829017,0.27958611972546876,0,0,0,1
-1.774037374662659,0.7852855157682902,0.6063092597254688,0,0,0,1
-1.774037374662659,0.7852855157682902,0.6063092597254688,0,0,0,1
-1.774037374662659,0.7852855157682902,0.6063092597254688,0,0,0,1
-0.23628757466265912,1.34574351576829,0.6318844797254688,0,0,0,1
1.906516525337341,1.35969141576829,0.19135256972546877,0,0,0,1
1.906516525337341,1.35969141576829,0.19135256972546877,0,0,0,1
2.893215725337341,0.3943519757682901,-0.07226399027453123,0,0,0,1
0.017951505337340894,-1.0480498842317099,-1.243967880274531,0,0,0,1
-0.47026584466265914,-0.07801009423170988,-1.0005191802745312,0,0,0,1
-1.050698774662659,0.8780467657682901,0.25235965972546875,0,0,0,1
-1.786422674662659,1.43043301576829,0.4913292197254688,0,0,0,1
-1.453971374662659,0.5805335857682902,1.3377653197254689,0,0,0,1
-1.453971374662659,0.5805335857682902,1.3377653197254689,0,0,0,1
0.5282864753373409,-0.7679425842317098,0.9351466597254688,0,0,0,1
0.5282864753373409,-0.7679425842317098,0.9351466597254688,0,0,0,1
-0.5214085446626591,-0.9769001842317099,0.24068787972546876,0,0,0,1
-1.089899474662659,0.1837236157682901,-0.15113464027453122,0,0,0,1
-1.089899474662659,0.1837236157682901,-0.15113464027453122,0,0,0,1
-0.0541996796626591,0.7869546157682902,-0.5617612802745312,0,0,0,1
-0.0541996796626591,0.7869546157682902,-0.5617612802745312,0,0,0,1
-0.0541996796626591,0.7869546157682902,-0.5617612802745312,0,0,0,1
-0.9324145146626591,0.7987906157682901,0.8549631497254688,0,0,0,1
-1.755022074662659,0.40167953576829013,1.134630519725469,0,0,0,1
-1.755022074662659,0.40167953576829013,1.134630519725469,0,0,0,1
0.3599391253373409,1.05259651576829,0.5116956197254688,0,0,0,1
0.5261855253373409,0.9461549657682902,-0.36751703027453125,0,0,0,1
0.5261855253373409,0.9461549657682902,-0.36751703027453125,0,0,0,1
0.4019055553373409,-0.44717864423170983,-0.5726129102745312,0,0,0,1
0.4019055553373409,-0.44717864423170983,-0.5726129102745312,0,0,0,1
-0.13647697466265912,-1.35785878423171,-0.35982183027453124,0,0,0,1
1.626564525337341,0.7934317157682902,0.8493897597254688,0,0,0,1
1.704617025337341,0.5698026557682901,0.8552729797254688,0,0,0,1
1.704617025337341,0.5698026557682901,0.8552729797254688,0,0,0,1
0.3506159953373409,-0.8207070842317099,0.8115905197254688,0,0,0,1
0.3506159953373409,-0.8207070842317099,0.8115905197254688,0,0,0,1
-1.267536574662659,-1.68012018423171,0.6020521797254689,0,0,0,1
-1.796499274662659,-0.36223064423170986,1.0975830197254688,0,0,0,1
0.14043094533734088,0.5918508157682901,0.8671276197254688,0,0,0,1
2.0426373253373407,0.8230362157682901,0.16624315972546877,0,0,0,1
2.9192738253373407,0.42027114576829017,-0.4038416502745312,0,0,0,1
2.9192738253373407,0.42027114576829017,-0.4038416502745312,0,0,0,1
2.6796460253373406,-0.6878263142317098,-0.7108699402745312,0,0,0,1
2.6796460253373406,-0.6878263142317098,-0.7108699402745312,0,0,0,1
1.408784425337341,-0.9447105342317098,-1.2231138802745312,0,0,0,1
-1.098588474662659,-0.10049138423170988,-0.5248025402745312,0,0,0,1
-2.912581874662659,1.76688531576829,0.05073055472546878,0,0,0,1
0.6867299253373409,0.6731832757682902,1.110261319725469,0,0,0,1
1.958485125337341,-0.26885010423170985,-0.13671330027453124,0,0,0,1
2.549878725337341,-1.11672008423171,-0.28918651027453124,0,0,0,1
2.549878725337341,-1.11672008423171,-0.28918651027453124,0,0,0,1
0.6594081253373408,-0.5363599842317098,-0.6271838802745312,0,0,0,1
0.6594081253373408,-0.5363599842317098,-0.6271838802745312,0,0,0,1
-1.299239574662659,0.6235640857682901,-0.47617796027453124,0,0,0,1
-1.299239574662659,0.6235640857682901,-0.47617796027453124,0,0,0,1
