acc_x,acc_y,acc_z,gyro_x,gyro_y,gyro_z,label
1.130239025337341,-1.15528888423171,-0.8773967302745311,0,0,0,1
2.2606330253373406,-2.1765496842317096,-0.8880695802745312,0,0,0,1
2.2606330253373406,-2.1765496842317096,-0.8880695802745312,0,0,0,1
1.943552525337341,-2.3735331842317096,-0.9025709802745312,0,0,0,1
0.8714938253373409,-1.7213270842317099,-0.5059382602745311,0,0,0,1
0.8714938253373409,-1.7213270842317099,-0.5059382602745311,0,0,0,1
-0.5603184746626592,0.9986626157682902,0.35977449972546877,0,0,0,1
-0.5603184746626592,0.9986626157682902,0.35977449972546877,0,0,0,1
-0.5603184746626592,0.9986626157682902,0.35977449972546877,0,0,0,1
-0.0008263426626591054,0.9930620157682901,-0.15727976027453122,0,0,0,1
0.2579169453373409,0.7214525157682902,-0.38330254027453126,0,0,0,1
-0.5427298346626591,0.01823962076829013,-0.6689656802745312,0,0,0,1
0.40598060533734087,-0.29469145423170984,-0.35131558027453125,0,0,0,1
0.40652132533734087,-0.29272044423170984,-0.036231250274531224,0,0,0,1
0.9875054253373409,0.28679235576829015,0.19807251972546877,0,0,0,1
1.311155825337341,-0.44211522423170985,0.026308504725468775,0,0,0,1
1.311155825337341,-0.44211522423170985,0.026308504725468775,0,0,0,1
-0.2514967746626591,-0.45546011423170985,-0.09262559027453122,0,0,0,1
-0.2514967746626591,-0.45546011423170985,-0.09262559027453122,0,0,0,1
-0.9561066746626591,-0.4634225142317099,-0.05363801227453122,0,0,0,1
-0.2685856746626591,-0.2415438142317099,-0.33479354027453123,0,0,0,1
1.289871725337341,-0.0029986912317098713,-0.10698780527453124,0,0,0,1
1.289871725337341,-0.0029986912317098713,-0.10698780527453124,0,0,0,1
1.085657625337341,0.8967967857682901,-0.3532148302745312,0,0,0,1
0.011491314337340894,1.55263251576829,-0.05463823827453122,0,0,0,1
-0.6007199146626591,1.95675271576829,0.37966235972546875,0,0,0,1
-0.7027582746626592,-0.23516523423170987,-0.10290012027453123,0,0,0,1
-0.7027582746626592,-0.23516523423170987,-0.10290012027453123,0,0,0,1
-0.7027582746626592,-0.23516523423170987,-0.10290012027453123,0,0,0,1
0.7605319253373409,-2.2527243842317097,-0.9265706802745312,0,0,0,1
0.7605319253373409,-2.2527243842317097,-0.9265706802745312,0,0,0,1
0.7605319253373409,-2.2527243842317097,-0.9265706802745312,0,0,0,1
-1.252022274662659,1.62812101576829,0.5159371797254688,0,0,0,1
-0.3303971146626591,1.31333031576829,0.18819858972546877,0,0,0,1
-0.3303971146626591,1.31333031576829,0.18819858972546877,0,0,0,1
1.521174925337341,-1.56419238423171,-0.6913665202745312,0,0,0,1
1.521174925337341,-1.56419238423171,-0.6913665202745312,0,0,0,1
2.753968725337341,-3.59325168423171,-1.7830926802745313,0,0,0,1
0.6292424253373409,-2.18520568423171,-1.2909221802745312,0,0,0,1
0.6292424253373409,-2.18520568423171,-1.2909221802745312,0,0,0,1
-2.548352674662659,0.29517118576829016,-0.5973739802745311,0,0,0,1
-2.548352674662659,0.29517118576829016,-0.5973739802745311,0,0,0,1
-4.449046274662659,2.32681041576829,0.9114583197254689,0,0,0,1
-0.7326073746626591,2.1269555157682905,0.9653779597254688,0,0,0,1
-0.7301935746626591,2.0913062157682902,0.3881710497254688,0,0,0,1
5.438302725337341,1.64792751576829,0.5563493697254688,0,0,0,1
5.112169725337341,1.41893331576829,-0.3845292602745312,0,0,0,1
2.830384725337341,-0.08417708823170987,-1.9466021802745312,0,0,0,1
2.830384725337341,-0.08417708823170987,-1.9466021802745312,0,0,0,1
0.2159304753373409,-2.87337588423171,-3.0414526802745314,0,0,0,1
0.2159304753373409,-2.87337588423171,-3.0414526802745314,0,0,0,1
-2.929486274662659,-5.132120584231711,-2.2766446802745315,0,0,0,1
-1.696180774662659,2.84935401576829,4.3868713197254685,0,0,0,1
-1.696180774662659,2.84935401576829,4.3868713197254685,0,0,0,1
-1.696180774662659,2.84935401576829,4.3868713197254685,0,0,0,1
2.9714150253373406,3.1022794157682902,3.363878919725469,0,0,0,1
7.876622725337341,-0.6925713842317098,1.2416690197254687,0,0,0,1
7.874819325337341,-0.6949840842317099,1.2261193197254687,0,0,0,1
8.152348725337342,-3.3035768842317097,-1.0294054802745312,0,0,0,1
6.362278525337341,-4.7769097842317105,-2.3363492802745314,0,0,0,1
6.362278525337341,-4.7769097842317105,-2.3363492802745314,0,0,0,1
6.362278525337341,-4.7769097842317105,-2.3363492802745314,0,0,0,1
-7.06072757466266,3.4938684157682904,1.9794278197254689,0,0,0,1
-7.24717857466266,5.0911284157682895,3.1247258197254686,0,0,0,1
-7.24717857466266,5.0911284157682895,3.1247258197254686,0,0,0,1
-3.307156574662659,3.7301909157682904,4.069741919725469,0,0,0,1
-3.307156574662659,3.7301909157682904,4.069741919725469,0,0,0,1
-3.307156574662659,3.7301909157682904,4.069741919725469,0,0,0,1
6.502984725337341,-1.67087548423171,-0.13432208027453124,0,0,0,1
5.39192172533734,-1.22823348423171,-1.1856898802745313,0,0,0,1
5.39192172533734,-1.22823348423171,-1.1856898802745313,0,0,0,1
5.39192172533734,-1.22823348423171,-1.1856898802745313,0,0,0,1
1.818279725337341,-2.66841028423171,-5.202162080274531,0,0,0,1
-0.9339051046626591,-5.37492558423171,-5.489232680274531,0,0,0,1
-2.121843774662659,-5.13974108423171,0.39395006972546875,0,0,0,1
-4.530275774662659,-1.71911358423171,0.7348558197254689,0,0,0,1
-2.2679838746626593,1.04500351576829,2.7444808197254686,0,0,0,1
1.938303525337341,2.0414612157682903,2.9474499197254684,0,0,0,1
2.804209225337341,0.8993128757682901,0.35325951972546876,0,0,0,1
4.06490872533734,-2.5729608842317098,-2.7888858802745315,0,0,0,1
4.06490872533734,-2.5729608842317098,-2.7888858802745315,0,0,0,1
-1.175055974662659,1.80719111576829,-4.098652680274531,0,0,0,1
-1.175055974662659,1.80719111576829,-4.098652680274531,0,0,0,1
-2.1730092746626593,3.5889025157682903,-1.1097970802745312,0,0,0,1
-1.633891574662659,3.2194011157682905,0.26453503972546877,0,0,0,1
-1.633891574662659,3.2194011157682905,0.26453503972546877,0,0,0,1
-2.4134158746626593,1.67312941576829,0.8569098197254689,0,0,0,1
2.3461423253373406,0.46548511576829016,1.044228319725469,0,0,0,1
-0.7030634746626591,0.8846211657682902,0.3291168497254688,0,0,0,1
-1.877088574662659,-1.06460858423171,-0.8344007802745311,0,0,0,1
-0.15166710466265912,-2.59862778423171,-1.647494580274531,0,0,0,1
-0.15166710466265912,-2.59862778423171,-1.647494580274531,0,0,0,1
0.5821747953373408,-0.48700795423170984,-1.8594387802745311,0,0,0,1
-0.3658070446626591,2.0121289157682902,-0.8480515802745312,0,0,0,1
-1.167175774662659,1.68084501576829,1.5328797197254689,0,0,0,1
-1.390289774662659,-0.28015322423170985,1.5221002197254687,0,0,0,1
1.184674725337341,-1.5392265842317099,0.9964369197254688,0,0,0,1
1.184674725337341,-1.5392265842317099,0.9964369197254688,0,0,0,1
1.184674725337341,-1.5392265842317099,0.9964369197254688,0,0,0,1
2.2060257253373408,-1.41067918423171,0.37496944972546875,0,0,0,1
-1.034487274662659,0.7552430857682901,-0.3966725202745312,0,0,0,1
-1.810450574662659,0.48465509576829013,-0.5253060202745312,0,0,0,1
-1.810450574662659,0.48465509576829013,-0.5253060202745312,0,0,0,1
-1.810450574662659,0.48465509576829013,-0.5253060202745312,0,0,0,1
-1.810450574662659,0.48465509576829013,-0.5253060202745312,0,0,0,1
-0.3130240246626591,-0.10654003423170987,-0.31420091027453123,0,0,0,1
-0.29586933466265913,0.6121580157682901,0.8691682197254689,0,0,0,1
-0.7509922746626592,1.34055051576829,1.1773959197254689,0,0,0,1
-1.679430474662659,1.75528151576829,0.12922396972546876,0,0,0,1
-1.401048174662659,1.29734561576829,-0.6169121802745312,0,0,0,1
-1.401048174662659,1.29734561576829,-0.6169121802745312,0,0,0,1
-0.4513211046626591,0.6098783757682902,-1.5608932802745312,0,0,0,1
-0.4513211046626591,0.6098783757682902,-1.5608932802745312,0,0,0,1
-1.098898374662659,-1.46540758423171,-0.9231702402745312,0,0,0,1
-1.098898374662659,-1.46540758423171,-0.9231702402745312,0,0,0,1
0.3956580253373409,-3.2489032842317096,0.5703233197254688,0,0,0,1
0.3956580253373409,-3.2489032842317096,0.5703233197254688,0,0,0,1
1.617620925337341,-2.8732840842317096,0.24402728972546878,0,0,0,1
2.2365775253373408,-1.93439078423171,0.09798880972546876,0,0,0,1
-4.402982674662659,1.4026442157682901,1.2976170197254688,0,0,0,1
-4.402982674662659,1.4026442157682901,1.2976170197254688,0,0,0,1
-4.615222274662659,-0.35477186423170987,0.24733486972546875,0,0,0,1
-4.615222274662659,-0.35477186423170987,0.24733486972546875,0,0,0,1
-2.2705087746626593,-1.84544038423171,-0.39473805027453124,0,0,0,1
4.0490687253373405,-0.7057360242317099,-0.10099986027453123,0,0,0,1
4.0490687253373405,-0.7057360242317099,-0.10099986027453123,0,0,0,1
6.570513225337341,0.24483506576829012,0.5572237197254688,0,0,0,1
5.302833125337341,2.69054791576829,2.0066703197254685,0,0,0,1
5.302833125337341,2.69054791576829,2.0066703197254685,0,0,0,1
4.492385425337341,2.1355436157682903,1.4392502197254688,0,0,0,1
3.0634484253373406,0.2453965157682901,0.020303813725468772,0,0,0,1
0.28326082533734087,-1.59256768423171,-0.6343451802745311,0,0,0,1
-2.450658274662659,-1.2849268842317099,0.7455535797254689,0,0,0,1
-2.450658274662659,-1.2849268842317099,0.7455535797254689,0,0,0,1
8.195537725337342,-1.60966358423171,0.03849813172546878,0,0,0,1
8.195537725337342,-1.60966358423171,0.03849813172546878,0,0,0,1
8.195537725337342,-1.60966358423171,0.03849813172546878,0,0,0,1
8.478330725337342,-1.95894538423171,-0.6710250802745312,0,0,0,1
8.478330725337342,-1.95894538423171,-0.6710250802745312,0,0,0,1
8.478330725337342,-1.95894538423171,-0.6710250802745312,0,0,0,1
-4.909249774662659,-0.29009775423170986,-0.2647259502745312,0,0,0,1
-6.713193874662659,0.4885354157682901,1.2859835197254688,0,0,0,1
-6.713193874662659,0.4885354157682901,1.2859835197254688,0,0,0,1
-6.713193874662659,0.4885354157682901,1.2859835197254688,0,0,0,1
-1.774990974662659,0.6232969157682902,1.7390788197254687,0,0,0,1
4.693922725337341,0.8383487157682902,-0.40274288027453126,0,0,0,1
4.693922725337341,0.8383487157682902,-0.40274288027453126,0,0,0,1
7.381739125337341,-1.08727158423171,-3.5825650802745312,0,0,0,1
4.756479725337341,-2.2550153842317098,-9.040985680274531,0,0,0,1
4.756479725337341,-2.2550153842317098,-9.040985680274531,0,0,0,1
4.756479725337341,-2.2550153842317098,-9.040985680274531,0,0,0,1
0.6518807553373409,0.7047915657682902,1.5952320197254688,0,0,0,1
-6.63397827466266,2.9595315157682904,1.9245549197254688,0,0,0,1
-5.507060274662659,1.94842761576829,4.809770319725469,0,0,0,1
-5.507060274662659,1.94842761576829,4.809770319725469,0,0,0,1
-0.9501461746626592,-0.9793484842317098,3.3702511197254688,0,0,0,1
-0.9501461746626592,-0.9793484842317098,3.3702511197254688,0,0,0,1
0.9224362253373409,-1.51387138423171,0.011468617725468772,0,0,0,1
2.9280410253373406,-1.42704518423171,-1.4151295802745312,0,0,0,1
5.329931725337341,-1.44754368423171,-2.5139811802745315,0,0,0,1
4.001834425337341,-0.5099174242317098,-5.388197680274532,0,0,0,1
-0.37345741466265914,0.7386499857682901,-5.310984680274531,0,0,0,1
-3.2868112746626594,1.8683031157682901,-0.4175554802745312,0,0,0,1
-4.892528274662659,1.31806841576829,1.3020283197254687,0,0,0,1
-4.892528274662659,1.31806841576829,1.3020283197254687,0,0,0,1
-1.455228274662659,0.008959460768290128,3.6291725197254685,0,0,0,1
-1.455228274662659,0.008959460768290128,3.6291725197254685,0,0,0,1
-1.455228274662659,0.008959460768290128,3.6291725197254685,0,0,0,1
3.5093446253373406,-0.20476484423170987,0.7264925197254688,0,0,0,1
3.505681525337341,-0.8923028542317099,-0.8543423802745311,0,0,0,1
3.505681525337341,-0.8923028542317099,-0.8543423802745311,0,0,0,1
-3.8416795746626593,0.39290091576829017,-1.2461428802745311,0,0,0,1
-3.8416795746626593,0.39290091576829017,-1.2461428802745311,0,0,0,1
-3.8623880746626593,1.31526571576829,-0.6580941802745311,0,0,0,1
-2.3195638746626592,1.52334181576829,0.25662871972546875,0,0,0,1
0.9853654253373408,-0.030038666231709872,1.1959742197254688,0,0,0,1
0.9853654253373408,-0.030038666231709872,1.1959742197254688,0,0,0,1
0.9853654253373408,-0.030038666231709872,1.1959742197254688,0,0,0,1
2.890724725337341,-1.22946298423171,1.3300359197254688,0,0,0,1
0.4620576053373409,-0.8369702842317098,1.174635819725469,0,0,0,1
-2.315069274662659,-0.10822373423170988,1.0102206197254688,0,0,0,1
-3.042104674662659,0.007678780368290129,0.27876427972546874,0,0,0,1
-0.7864632446626592,-0.36380798423170985,-0.7633033102745311,0,0,0,1
2.681719325337341,-0.19575823423170988,-0.8575505302745312,0,0,0,1
2.681719325337341,-0.19575823423170988,-0.8575505302745312,0,0,0,1
1.260371725337341,-0.05204240623170987,-0.2859635802745312,0,0,0,1
-0.9380831746626591,-0.2453557842317099,0.5974588697254688,0,0,0,1
-2.2373370746626593,0.5867114157682901,0.9878670897254688,0,0,0,1
-2.2373370746626593,0.5867114157682901,0.9878670897254688,0,0,0,1
-0.8767742746626591,1.28331691576829,0.8825140897254689,0,0,0,1
2.8139892253373406,-0.5027709842317098,-0.8775465802745311,0,0,0,1
2.8139892253373406,-0.5027709842317098,-0.8775465802745311,0,0,0,1
1.724982725337341,-1.01969148423171,-1.0303770802745311,0,0,0,1
0.45408679533734086,-1.13233588423171,-0.9932488802745312,0,0,0,1
-0.8264431746626592,-0.6516624842317098,-0.17161504027453123,0,0,0,1
-0.8264431746626592,-0.6516624842317098,-0.17161504027453123,0,0,0,1
-1.690508374662659,0.32063061576829016,0.21603330972546878,0,0,0,1
1.892196225337341,0.6483679557682901,0.7703330197254689,0,0,0,1
2.0029330253373407,-0.41536076423170987,0.03495809272546878,0,0,0,1
2.0029330253373407,-0.41536076423170987,0.03495809272546878,0,0,0,1
0.9037385253373409,-1.30800458423171,-0.46595481027453123,0,0,0,1
0.9037385253373409,-1.30800458423171,-0.46595481027453123,0,0,0,1
-0.22981594466265912,-0.37131122423170987,-0.5354862802745312,0,0,0,1
