acc_x,acc_y,acc_z,gyro_x,gyro_y,gyro_z,label
-0.7056908446626591,-0.16081534423170987,0.23069282972546876,0,0,0,1
-0.7056908446626591,-0.16081534423170987,0.23069282972546876,0,0,0,1
0.8422846953373408,-0.31584988423170984,-0.16126040027453123,0,0,0,1
0.2317605253373409,-0.30564950423170983,-0.7419033402745312,0,0,0,1
0.2317605253373409,-0.30564950423170983,-0.7419033402745312,0,0,0,1
-0.7642807746626591,0.6535776157682901,-0.4960828102745312,0,0,0,1
-0.7642807746626591,0.6535776157682901,-0.4960828102745312,0,0,0,1
-1.085569874662659,-0.5185626842317098,-0.11981836027453123,0,0,0,1
1.108473325337341,-1.90500308423171,0.19904144972546878,0,0,0,1
0.9669366253373409,-1.7320229842317099,0.09033950972546877,0,0,0,1
0.9669366253373409,-1.7320229842317099,0.09033950972546877,0,0,0,1
-0.09253071466265911,-1.43276298423171,-0.13955584027453122,0,0,0,1
-0.6823916246626591,-0.9442159842317098,-0.3563642802745312,0,0,0,1
-1.212458074662659,-0.07469449423170987,-0.3770288502745312,0,0,0,1
-1.538938074662659,0.8124449157682901,-0.7006573802745312,0,0,0,1
1.033943725337341,-0.36570386423170986,-0.6749379802745312,0,0,0,1
1.033943725337341,-0.36570386423170986,-0.6749379802745312,0,0,0,1
1.033943725337341,-0.36570386423170986,-0.6749379802745312,0,0,0,1
-0.2606806546626591,-1.82885028423171,-0.18543199027453122,0,0,0,1
-0.4606823746626591,-1.43719008423171,0.32709641972546877,0,0,0,1
-0.4606823746626591,-1.43719008423171,0.32709641972546877,0,0,0,1
-1.385932474662659,-0.12443755423170987,0.37454471972546877,0,0,0,1
-1.385932474662659,-0.12443755423170987,0.37454471972546877,0,0,0,1
2.002653725337341,-1.16733618423171,-0.8877618802745312,0,0,0,1
0.7793231253373409,-0.9038693842317098,-1.107922480274531,0,0,0,1
0.7793231253373409,-0.9038693842317098,-1.107922480274531,0,0,0,1
-0.9421667746626591,0.04710199276829013,0.38831886972546875,0,0,0,1
-0.9421667746626591,0.04710199276829013,0.38831886972546875,0,0,0,1
-0.5740961746626592,-0.1257722242317099,0.5863767597254689,0,0,0,1
0.5872531253373409,-0.35932443423170984,0.6638948197254688,0,0,0,1
1.552864525337341,-0.46204195423170985,0.6564425497254688,0,0,0,1
1.253977325337341,-0.008248787231709872,0.2607409597254688,0,0,0,1
-0.4123368146626591,0.6340515757682902,-0.26322392027453123,0,0,0,1
0.9936051253373409,-0.2314628142317099,-0.6883480802745312,0,0,0,1
0.9936051253373409,-0.2314628142317099,-0.6883480802745312,0,0,0,1
-1.197148774662659,-0.35204611423170984,1.0390628197254688,0,0,0,1
1.439245725337341,-0.43404541423170984,-0.13492385027453124,0,0,0,1
1.132521125337341,-0.4800765342317099,-0.4662987302745312,0,0,0,1
1.132521125337341,-0.4800765342317099,-0.4662987302745312,0,0,0,1
-0.27211712466265914,0.029279369768290125,-0.42107168027453123,0,0,0,1
-1.223577974662659,1.02879381576829,-0.29102102027453125,0,0,0,1
-0.8132118746626591,1.34518081576829,-0.019886882274531226,0,0,0,1
0.6594319253373409,0.9256393457682901,0.20485027972546876,0,0,0,1
0.9876141753373409,0.22622593576829012,0.18187364972546877,0,0,0,1
0.4593501253373409,-0.32086168423170985,-0.06730392727453123,0,0,0,1
0.4031996853373409,-0.8914332242317099,0.3145817197254688,0,0,0,1
-0.5835881046626591,0.7943208157682902,0.5730514797254688,0,0,0,1
-0.5835881046626591,0.7943208157682902,0.5730514797254688,0,0,0,1
0.6186642853373409,0.9888054157682902,-0.019237549274531224,0,0,0,1
1.386537125337341,0.08462710976829013,-0.25619248027453123,0,0,0,1
0.33843852533734087,-0.39442191423170986,-0.7660527802745312,0,0,0,1
0.33843852533734087,-0.39442191423170986,-0.7660527802745312,0,0,0,1
-1.106577374662659,-0.9137495842317098,-0.6448555302745311,0,0,0,1
-0.0556025346626591,-0.7992938842317099,-0.09998694027453123,0,0,0,1
0.10084964533734089,-0.42524418423170984,0.08130654572546878,0,0,0,1
-0.08686970066265912,-0.27736638423170984,0.23871167972546878,0,0,0,1
0.5492596753373409,-0.6374525842317098,0.3983705897254688,0,0,0,1
0.5492596753373409,-0.6374525842317098,0.3983705897254688,0,0,0,1
-0.8992361746626591,-0.15541909423170988,0.22302278972546877,0,0,0,1
-0.5256066146626591,-0.3964885242317099,0.21174975972546878,0,0,0,1
-0.054090006662659104,-0.09140251423170986,0.17701002972546878,0,0,0,1
-0.054090006662659104,-0.09140251423170986,0.17701002972546878,0,0,0,1
1.298146725337341,0.41091051576829013,-0.13651148027453122,0,0,0,1
-0.1826586546626591,0.31725646576829014,-0.14751080027453123,0,0,0,1
-1.280939574662659,0.39477397576829015,0.3071430597254688,0,0,0,1
-1.280939574662659,0.39477397576829015,0.3071430597254688,0,0,0,1
0.7186083953373409,-0.6190428842317098,0.17251595972546876,0,0,0,1
2.493844525337341,-1.35044368423171,0.11713680472546877,0,0,0,1
2.493844525337341,-1.35044368423171,0.11713680472546877,0,0,0,1
0.0004573029373408947,-0.1294328942317099,-0.21362188027453122,0,0,0,1
0.0004573029373408947,-0.1294328942317099,-0.21362188027453122,0,0,0,1
-1.485766874662659,0.6211414157682902,-0.07963076027453123,0,0,0,1
-1.337696574662659,0.9922597157682902,-0.16378775027453124,0,0,0,1
-0.11745785066265911,0.6871412157682901,-0.46777716027453126,0,0,0,1
1.595250625337341,-0.6472626842317099,-0.41907038027453125,0,0,0,1
0.7040648653373409,-0.5740132142317098,-0.23084286027453124,0,0,0,1
0.07598067933734089,-0.020296436231709875,0.37783094972546877,0,0,0,1
0.07598067933734089,-0.020296436231709875,0.37783094972546877,0,0,0,1
-0.7536196746626591,1.20535591576829,1.2682890197254688,0,0,0,1
-0.5222706746626591,0.49514957576829016,1.2245029197254689,0,0,0,1
-0.5222706746626591,0.49514957576829016,1.2245029197254689,0,0,0,1
0.6508889253373409,-2.1798414842317095,-0.41234282027453123,0,0,0,1
0.6508889253373409,-2.1798414842317095,-0.41234282027453123,0,0,0,1
0.017111317337340896,-1.53963838423171,-0.6660899202745312,0,0,0,1
-0.7130169746626591,-1.0378285842317099,-0.7400959802745312,0,0,0,1
1.183464525337341,-0.20789740423170988,0.7908001797254688,0,0,0,1
1.183464525337341,-0.20789740423170988,0.7908001797254688,0,0,0,1
3.2138762253373407,-0.09815905423170987,1.456398419725469,0,0,0,1
2.975121025337341,0.6353619157682902,1.473113719725469,0,0,0,1
1.542654525337341,1.42440441576829,1.1402878197254689,0,0,0,1
0.35955382533734087,1.13134711576829,0.5198170197254688,0,0,0,1
-3.053107274662659,-0.49968991423170983,-0.36737195027453123,0,0,0,1
-3.5366835746626593,-0.6511617842317099,-0.7468925802745312,0,0,0,1
-1.203611874662659,-0.5545221342317098,-0.09432736027453123,0,0,0,1
-1.203611874662659,-0.5545221342317098,-0.09432736027453123,0,0,0,1
3.0205674253373407,0.11349095576829013,0.22437163972546878,0,0,0,1
3.0205674253373407,0.11349095576829013,0.22437163972546878,0,0,0,1
3.4607557253373407,-0.1828480842317099,0.4500017997254688,0,0,0,1
0.5353903953373409,-1.1370362842317099,0.4689958997254688,0,0,0,1
-1.809350474662659,-0.5355976842317098,0.8927801197254688,0,0,0,1
-3.1195153746626594,0.6926958157682901,0.6168899797254688,0,0,0,1
-0.07876346866265911,0.48034067576829015,0.3445464197254688,0,0,0,1
-0.07876346866265911,0.48034067576829015,0.3445464197254688,0,0,0,1
2.132708125337341,-1.50619728423171,-0.9144312502745312,0,0,0,1
2.132708125337341,-1.50619728423171,-0.9144312502745312,0,0,0,1
-0.5421700346626591,0.32436855576829016,0.09064515972546877,0,0,0,1
-0.5421700346626591,0.32436855576829016,0.09064515972546877,0,0,0,1
-0.5421700346626591,0.32436855576829016,0.09064515972546877,0,0,0,1
-1.835103474662659,1.22958901576829,0.6235852197254689,0,0,0,1
1.111457325337341,-0.1679361842317099,0.3067113997254688,0,0,0,1
1.111457325337341,-0.1679361842317099,0.3067113997254688,0,0,0,1
1.111457325337341,-0.1679361842317099,0.3067113997254688,0,0,0,1
1.042389425337341,-0.6810490842317098,-0.3831740802745312,0,0,0,1
-1.766138974662659,0.2693655657682901,-0.4690363802745312,0,0,0,1
-1.394097774662659,-0.15252350423170988,-0.36988868027453126,0,0,0,1
-0.18557403466265912,-0.7312780442317098,-0.28250364027453123,0,0,0,1
-0.18557403466265912,-0.7312780442317098,-0.28250364027453123,0,0,0,1
1.764863525337341,-0.6098746842317099,0.5377416197254689,0,0,0,1
1.764863525337341,-0.6098746842317099,0.5377416197254689,0,0,0,1
-1.032026774662659,0.42134668576829015,0.7630827197254688,0,0,0,1
-1.032026774662659,0.42134668576829015,0.7630827197254688,0,0,0,1
0.3233218253373409,-0.36139033423170985,-0.15477994027453124,0,0,0,1
1.044748825337341,-0.5501694542317098,-0.8435148302745312,0,0,0,1
1.044748825337341,-0.5501694542317098,-0.8435148302745312,0,0,0,1
-1.935464874662659,0.2240643157682901,-0.14683464027453122,0,0,0,1
-1.935464874662659,0.2240643157682901,-0.14683464027453122,0,0,0,1
-1.935464874662659,0.2240643157682901,-0.14683464027453122,0,0,0,1
-1.219389374662659,-0.46758912423170984,0.028923241725468774,0,0,0,1
0.9741654553373409,0.09829809076829013,0.5158448497254688,0,0,0,1
0.6135316253373408,-0.009768706231709872,0.36442121972546876,0,0,0,1
0.6135316253373408,-0.009768706231709872,0.36442121972546876,0,0,0,1
0.6135316253373408,-0.009768706231709872,0.36442121972546876,0,0,0,1
-1.408412474662659,-0.7737658842317099,-0.6245203302745311,0,0,0,1
-1.408412474662659,-0.7737658842317099,-0.6245203302745311,0,0,0,1
-2.379564774662659,-1.4597792842317099,-1.2819825802745313,0,0,0,1
-2.379564774662659,-1.4597792842317099,-1.2819825802745313,0,0,0,1
1.539085925337341,0.7017295557682901,0.17946740972546876,0,0,0,1
1.956881025337341,1.4560847157682901,0.6704153197254689,0,0,0,1
1.956881025337341,1.4560847157682901,0.6704153197254689,0,0,0,1
2.3659301253373406,0.7388718157682902,0.3013482997254688,0,0,0,1
-2.4553570746626594,-1.05796228423171,-0.5238186402745312,0,0,0,1
-2.4553570746626594,-1.05796228423171,-0.5238186402745312,0,0,0,1
-3.3048801746626593,-0.9372522842317098,-0.10348395027453124,0,0,0,1
-3.3048801746626593,-0.9372522842317098,-0.10348395027453124,0,0,0,1
1.613684225337341,0.6174517457682901,0.5415521497254688,0,0,0,1
3.028797725337341,0.44518424576829013,0.27129229972546876,0,0,0,1
3.1331210253373407,-0.13552389423170988,-0.24578098027453124,0,0,0,1
3.1331210253373407,-0.13552389423170988,-0.24578098027453124,0,0,0,1
-2.3632330746626593,-0.26600704423170984,-0.38902691027453123,0,0,0,1
-2.3632330746626593,-0.26600704423170984,-0.38902691027453123,0,0,0,1
-3.564445974662659,0.9175829157682901,0.09920951572546877,0,0,0,1
0.7816138253373409,0.6396499457682902,0.3810507897254688,0,0,0,1
0.7816138253373409,0.6396499457682902,0.3810507897254688,0,0,0,1
2.0338216253373407,0.21424092576829012,-0.18979982027453124,0,0,0,1
2.2914957253373407,-0.15001342423170988,-0.4199955802745312,0,0,0,1
0.5133509753373409,-0.6232076842317098,-0.5621283402745312,0,0,0,1
0.5133509753373409,-0.6232076842317098,-0.5621283402745312,0,0,0,1
-1.771452374662659,-0.060853824231709874,-0.6474590802745311,0,0,0,1
-0.6629233246626591,0.37981243576829016,-0.026797445274531227,0,0,0,1
0.9486689753373408,0.6227104157682901,0.18955381972546878,0,0,0,1
0.9499116253373409,0.6149257157682901,0.20392819972546877,0,0,0,1
0.9499116253373409,0.6149257157682901,0.20392819972546877,0,0,0,1
1.585686225337341,0.07619907576829013,0.046432582725468775,0,0,0,1
1.585686225337341,0.07619907576829013,0.046432582725468775,0,0,0,1
-0.7114033746626591,0.2959411357682901,-0.5785216402745311,0,0,0,1
-0.7117867346626591,0.29649044576829015,-0.5814982802745312,0,0,0,1
0.012699620337340897,1.31636041576829,-0.35144702027453123,0,0,0,1
0.3719048653373409,1.2016196157682901,-0.2695074402745312,0,0,0,1
1.054233125337341,-0.6989133142317099,-0.19459799027453123,0,0,0,1
1.054233125337341,-0.6989133142317099,-0.19459799027453123,0,0,0,1
-0.8227324346626591,-0.5313126842317099,0.23656865972546878,0,0,0,1
-0.5641903746626591,0.27591003576829015,0.3085490197254688,0,0,0,1
-0.5641903746626591,0.27591003576829015,0.3085490197254688,0,0,0,1
0.8020224753373408,-0.41496513423170983,-0.4787173602745312,0,0,0,1
0.8020224753373408,-0.41496513423170983,-0.4787173602745312,0,0,0,1
0.8020224753373408,-0.41496513423170983,-0.4787173602745312,0,0,0,1
-0.09794281466265911,-0.6663839842317099,-0.40318671027453123,0,0,0,1
