acc_x,acc_y,acc_z,gyro_x,gyro_y,gyro_z,label
-2.723243674662659,-0.27322493423170985,-1.7426240802745312,0,0,0,1
-2.8897099746626593,-0.42213012423170987,-1.2046236802745312,0,0,0,1
-2.8897099746626593,-0.42213012423170987,-1.2046236802745312,0,0,0,1
-0.35716293466265914,1.10262241576829,1.545298819725469,0,0,0,1
-0.35716293466265914,1.10262241576829,1.545298819725469,0,0,0,1
0.6575312753373409,1.08205721576829,2.0998943197254687,0,0,0,1
1.823592725337341,-0.33628843423170984,2.3978269197254685,0,0,0,1
1.527274625337341,-1.72491188423171,1.6043378197254687,0,0,0,1
-0.011924250662659105,-1.54477258423171,0.9360421597254688,0,0,0,1
-0.8829378746626592,-0.1343460042317099,0.6833749697254689,0,0,0,1
-0.2473502046626591,1.33986761576829,0.3134398697254688,0,0,0,1
-0.2473502046626591,1.33986761576829,0.3134398697254688,0,0,0,1
1.239033225337341,1.15799151576829,-0.9656156802745312,0,0,0,1
1.422416225337341,-0.5046865142317098,-1.3394074802745313,0,0,0,1
0.9218564253373409,-1.95971058423171,-1.3337394802745313,0,0,0,1
-0.1799216146626591,-1.84087598423171,-0.7270997802745311,0,0,0,1
-0.1799216146626591,-1.84087598423171,-0.7270997802745311,0,0,0,1
-0.1799216146626591,-1.84087598423171,-0.7270997802745311,0,0,0,1
-0.12266205466265911,1.04731261576829,1.020466419725469,0,0,0,1
1.641606825337341,-0.2807652842317099,0.32888584972546875,0,0,0,1
1.695713525337341,-1.03286638423171,-0.49341315027453125,0,0,0,1
0.8189349253373409,0.44275655576829015,-0.9965245802745312,0,0,0,1
0.8189349253373409,0.44275655576829015,-0.9965245802745312,0,0,0,1
-0.44691990466265913,1.30619011576829,-1.1402690802745312,0,0,0,1
-0.5842165746626591,-0.34844876423170984,-0.7665859202745312,0,0,0,1
-0.5842165746626591,-0.34844876423170984,-0.7665859202745312,0,0,0,1
-0.5842165746626591,-0.34844876423170984,-0.7665859202745312,0,0,0,1
-0.14749191466265912,-0.9147066842317099,-0.42101428027453125,0,0,0,1
-0.14749191466265912,-0.9147066842317099,-0.42101428027453125,0,0,0,1
0.24235202533734088,-0.5277149542317099,0.12769454972546876,0,0,0,1
0.7190413653373409,-0.08217334423170987,0.6660655197254688,0,0,0,1
0.6049637953373409,0.10488126576829013,1.135576319725469,0,0,0,1
1.330508725337341,0.14992685576829012,-1.102206180274531,0,0,0,1
1.330508725337341,0.14992685576829012,-1.102206180274531,0,0,0,1
1.097940925337341,0.1531186257682901,-1.363469880274531,0,0,0,1
-0.11429928466265911,-0.06330324423170987,-0.6236808802745312,0,0,0,1
-0.11429928466265911,-0.06330324423170987,-0.6236808802745312,0,0,0,1
-1.106733774662659,-0.32467448423170986,0.10804175972546877,0,0,0,1
-1.106733774662659,-0.32467448423170986,0.10804175972546877,0,0,0,1
-1.506821174662659,-0.1969018542317099,1.0199345197254688,0,0,0,1
-0.6867251246626591,0.14667399576829013,1.6322317197254688,0,0,0,1
1.372377925337341,-0.20001940423170989,0.21829836972546876,0,0,0,1
1.372377925337341,-0.20001940423170989,0.21829836972546876,0,0,0,1
1.372377925337341,-0.20001940423170989,0.21829836972546876,0,0,0,1
0.4241509553373409,0.09600383576829014,-0.9965579202745312,0,0,0,1
-0.8520579146626591,0.6739805557682902,-1.0030929202745311,0,0,0,1
-1.649487974662659,0.6809389757682901,-0.8804467802745312,0,0,0,1
-1.649487974662659,0.6809389757682901,-0.8804467802745312,0,0,0,1
-1.649487974662659,0.6809389757682901,-0.8804467802745312,0,0,0,1
-1.047996974662659,0.08529627576829013,-0.5751614302745311,0,0,0,1
0.3220200653373409,-0.1526199142317099,-0.018522413274531226,0,0,0,1
1.195221425337341,0.3629757357682901,0.35157581972546875,0,0,0,1
0.016502873337340896,0.2103667157682901,0.03834977572546878,0,0,0,1
-1.468865874662659,0.11040878576829014,-0.3566876402745312,0,0,0,1
-1.468865874662659,0.11040878576829014,-0.3566876402745312,0,0,0,1
-1.513510174662659,0.33336298576829015,-0.7217226802745311,0,0,0,1
-1.513510174662659,0.33336298576829015,-0.7217226802745311,0,0,0,1
0.013925091337340895,0.16539213576829012,-0.49964360027453125,0,0,0,1
0.013925091337340895,0.16539213576829012,-0.49964360027453125,0,0,0,1
0.013925091337340895,0.16539213576829012,-0.49964360027453125,0,0,0,1
1.161543425337341,0.32490201576829014,-0.3919863402745312,0,0,0,1
1.161543425337341,0.32490201576829014,-0.3919863402745312,0,0,0,1
0.015281216337340895,0.2158264357682901,0.2913653797254688,0,0,0,1
0.015281216337340895,0.2158264357682901,0.2913653797254688,0,0,0,1
-1.316653674662659,-0.18994983423170989,0.19720646972546876,0,0,0,1
-1.044767874662659,0.14209747576829013,0.018782941725468773,0,0,0,1
1.391051825337341,0.1848765757682901,-0.5000679202745312,0,0,0,1
1.046989925337341,-0.15973328423170988,-0.6122704502745312,0,0,0,1
-0.1105675546626591,-0.26283852423170984,-0.16506908027453124,0,0,0,1
-1.030561874662659,0.44846001576829014,0.25427041972546877,0,0,0,1
-0.8347477746626591,1.15318851576829,0.48556517972546875,0,0,0,1
-0.8347477746626591,1.15318851576829,0.48556517972546875,0,0,0,1
0.44540549533734086,1.08128981576829,0.28874846972546875,0,0,0,1
0.44540549533734086,1.08128981576829,0.28874846972546875,0,0,0,1
1.594082325337341,-0.30313811423170983,-0.6762094802745312,0,0,0,1
0.5046029253373409,-0.5845000842317098,-0.9266730302745312,0,0,0,1
-0.4878229946626591,-0.3792475242317099,-0.7675819802745312,0,0,0,1
-0.8549170346626591,-0.1253920142317099,-0.6244091802745312,0,0,0,1
-0.5960087746626591,0.15858333576829012,-0.16536835027453123,0,0,0,1
-0.5960087746626591,0.15858333576829012,-0.16536835027453123,0,0,0,1
0.057141795337340894,0.22769983576829012,0.17528458972546876,0,0,0,1
1.030005025337341,-0.07468035423170986,0.07597258572546876,0,0,0,1
0.7583623253373409,0.0054307092682901285,-0.2613923802745312,0,0,0,1
-0.9828591146626591,0.7947880857682902,-0.23530230027453122,0,0,0,1
-1.609021674662659,1.26615811576829,-0.20630881027453124,0,0,0,1
-0.5416235746626591,0.7619607657682902,-0.40448156027453125,0,0,0,1
1.936790925337341,-0.2196160842317099,-0.7749621802745311,0,0,0,1
1.007497325337341,0.2179847857682901,-0.48805723027453124,0,0,0,1
-1.787499374662659,-0.02277013323170987,0.006823627725468775,0,0,0,1
-1.787499374662659,-0.02277013323170987,0.006823627725468775,0,0,0,1
-1.787499374662659,-0.02277013323170987,0.006823627725468775,0,0,0,1
-0.22991703466265911,-0.5949915842317098,-0.15252349027453124,0,0,0,1
2.056473225337341,-0.18046276423170987,-0.2851479402745312,0,0,0,1
2.056473225337341,-0.18046276423170987,-0.2851479402745312,0,0,0,1
-0.9030899746626591,0.3267681157682901,-0.17821268027453124,0,0,0,1
-0.9038357746626591,0.32375549576829016,-0.06216225027453122,0,0,0,1
-1.442893474662659,0.25460656576829016,-0.2898615302745312,0,0,0,1
1.080503925337341,0.32322706576829013,-0.9016408802745312,0,0,0,1
1.080503925337341,0.32322706576829013,-0.9016408802745312,0,0,0,1
1.892941925337341,0.5656406157682902,-0.8616975802745311,0,0,0,1
1.042693625337341,0.7040754757682901,-1.0201399802745312,0,0,0,1
-0.6771616746626591,0.17383262576829012,-0.7578379202745312,0,0,0,1
-1.728838474662659,-0.4417528042317099,-0.5469716802745311,0,0,0,1
-1.728838474662659,-0.4417528042317099,-0.5469716802745311,0,0,0,1
-1.832213374662659,-0.5660189242317099,0.09272440972546878,0,0,0,1
-1.832213374662659,-0.5660189242317099,0.34196041972546876,0,0,0,1
-1.270683774662659,-0.36154441423170985,0.34196041972546876,0,0,0,1
1.748668225337341,-0.6693094842317099,0.24698963972546878,0,0,0,1
1.686571625337341,-0.8337810842317098,-0.23118672027453124,0,0,0,1
-0.13981674466265911,-0.7151511842317099,-0.48654911027453124,0,0,0,1
-2.414298474662659,-0.04664610023170987,-0.2571956202745312,0,0,0,1
-1.916848674662659,0.5924099157682902,0.08061310472546877,0,0,0,1
-1.916848674662659,0.5924099157682902,0.08061310472546877,0,0,0,1
-1.916848674662659,0.5924099157682902,0.08061310472546877,0,0,0,1
1.066068225337341,1.09759001576829,-0.10710028027453122,0,0,0,1
2.384276925337341,0.42601086576829017,-0.6789702502745312,0,0,0,1
2.384276925337341,0.42601086576829017,-0.6789702502745312,0,0,0,1
1.819246825337341,-0.26650555423170985,-0.7650106302745312,0,0,0,1
-0.35290191466265913,-0.5280112842317098,-0.8687095402745312,0,0,0,1
-0.35290191466265913,-0.5280112842317098,-0.8687095402745312,0,0,0,1
-0.35290191466265913,-0.5280112842317098,-0.8687095402745312,0,0,0,1
0.8379807653373409,-0.28141878423170985,0.41674357972546877,0,0,0,1
2.061395225337341,-0.43727270423170983,0.5827781797254689,0,0,0,1
1.359586225337341,-0.9041877242317099,0.18866022972546878,0,0,0,1
1.359586225337341,-0.9041877242317099,0.18866022972546878,0,0,0,1
0.47524596533734087,-0.7965433442317098,0.09327563472546876,0,0,0,1
0.47524596533734087,-0.7965433442317098,0.09327563472546876,0,0,0,1
-0.2461161446626591,0.09725149576829013,0.32044591972546876,0,0,0,1
1.002665025337341,0.7602261457682902,-0.08178464027453122,0,0,0,1
1.002665025337341,0.7602261457682902,-0.08178464027453122,0,0,0,1
2.039507425337341,-0.7687296842317098,-0.6585515802745312,0,0,0,1
2.039507425337341,-0.7687296842317098,-0.6585515802745312,0,0,0,1
2.039507425337341,-0.7687296842317098,-0.6585515802745312,0,0,0,1
0.8021054253373409,0.30662751576829017,0.12896939972546878,0,0,0,1
0.8405528253373409,0.8089393557682901,0.5033989197254688,0,0,0,1
0.8405528253373409,0.8089393557682901,0.5033989197254688,0,0,0,1
2.5501323253373407,-0.21267519423170989,-0.16540751027453124,0,0,0,1
3.450426625337341,-1.14996098423171,-0.6831056802745312,0,0,0,1
2.6272530253373407,-1.27582048423171,-1.0915460802745311,0,0,0,1
1.253052225337341,-0.33262286423170984,-1.2356045802745312,0,0,0,1
1.253052225337341,-0.33262286423170984,-1.2356045802745312,0,0,0,1
0.3846745653373409,0.3814989557682901,-0.5561516802745312,0,0,0,1
0.3846745653373409,0.3814989557682901,-0.5561516802745312,0,0,0,1
0.3846745653373409,0.3814989557682901,-0.5561516802745312,0,0,0,1
0.3583140553373409,-0.2328324142317099,-0.36724356027453126,0,0,0,1
0.3583140553373409,-0.2328324142317099,-0.36724356027453126,0,0,0,1
3.2740321253373406,-1.11641968423171,0.07311829972546877,0,0,0,1
5.39595672533734,-0.9479701342317098,0.17273434972546878,0,0,0,1
5.39595672533734,-0.9479701342317098,0.17273434972546878,0,0,0,1
2.7632832253373407,1.1573801157682901,-1.3147200802745311,0,0,0,1
1.174260625337341,0.2094066357682901,-1.8174796802745312,0,0,0,1
1.174260625337341,0.2094066357682901,-1.8174796802745312,0,0,0,1
-5.215722974662659,-0.6011039842317099,-1.1093080802745312,0,0,0,1
-5.215722974662659,-0.6011039842317099,-1.1093080802745312,0,0,0,1
-4.836107674662659,0.6683057157682901,-0.5219243802745311,0,0,0,1
-0.5170674146626592,1.35676441576829,0.5271667497254688,0,0,0,1
2.942619725337341,1.5394932157682901,-0.5667642802745312,0,0,0,1
2.942619725337341,1.5394932157682901,-0.5667642802745312,0,0,0,1
4.097427725337341,1.24644141576829,-0.13847914027453123,0,0,0,1
4.097427725337341,1.24644141576829,-0.13847914027453123,0,0,0,1
3.3733382253373407,-0.25503398423170986,-1.3786861802745312,0,0,0,1
-1.517243874662659,-2.42065708423171,-1.9286716802745312,0,0,0,1
-1.517243874662659,-2.42065708423171,-1.9286716802745312,0,0,0,1
-5.14868257466266,0.06279042576829012,-1.1200332802745312,0,0,0,1
-5.37623227466266,1.88786241576829,-1.1187346802745313,0,0,0,1
-1.446689074662659,0.8099409157682902,-0.2854396402745312,0,0,0,1
-1.446689074662659,0.8099409157682902,-0.2854396402745312,0,0,0,1
-0.9897417746626591,-0.5557126842317098,0.34707441972546876,0,0,0,1
-0.9897417746626591,-0.5557126842317098,0.34707441972546876,0,0,0,1
-0.9897417746626591,-0.5557126842317098,0.34707441972546876,0,0,0,1
-3.113292674662659,1.33031541576829,1.0842044197254688,0,0,0,1
-1.363409474662659,0.29578696576829017,1.2648153197254688,0,0,0,1
-2.1042160746626593,0.2642999757682901,0.13110872972546878,0,0,0,1
-2.1042160746626593,0.2642999757682901,0.13110872972546878,0,0,0,1
-0.9529890746626591,-0.1701313342317099,-0.26933602027453124,0,0,0,1
-0.9529890746626591,-0.1701313342317099,-0.26933602027453124,0,0,0,1
1.815414925337341,-0.44552008423170986,-0.21987739027453124,0,0,0,1
-1.754353974662659,0.6201139157682901,-0.11613873027453123,0,0,0,1
-1.754353974662659,0.6201139157682901,-0.11613873027453123,0,0,0,1
-2.8744982746626593,0.47897674576829014,0.14621224972546876,0,0,0,1
-1.352603374662659,-0.33546454423170985,0.8508890197254688,0,0,0,1
-1.352603374662659,-0.33546454423170985,0.8508890197254688,0,0,0,1
-0.6905865746626592,0.2366967957682901,0.6674502797254688,0,0,0,1
1.868530725337341,0.29744558576829017,0.6030488897254688,0,0,0,1
3.295117825337341,0.12826155576829013,-0.14428225027453123,0,0,0,1
3.295117825337341,0.12826155576829013,-0.14428225027453123,0,0,0,1
-2.058918474662659,-0.42488118423170984,-0.8196125302745312,0,0,0,1
-1.689080674662659,0.09054263576829014,-0.5280127202745312,0,0,0,1
-1.689080674662659,0.09054263576829014,-0.5280127202745312,0,0,0,1
-1.310293674662659,1.10708901576829,-0.5683220302745312,0,0,0,1
0.4901871853373409,1.12356591576829,-0.39588968027453125,0,0,0,1
0.4901871853373409,1.12356591576829,-0.39588968027453125,0,0,0,1
2.6634897253373406,0.26045031576829014,-0.15870777027453123,0,0,0,1
1.181809925337341,0.017189252768290128,-0.41644445027453125,0,0,0,1
-1.495142474662659,-0.04195211423170987,-0.6752947802745312,0,0,0,1
-0.08480308466265911,-0.5329770842317099,-0.7554612802745312,0,0,0,1
1.272919225337341,-0.5092954442317098,-0.36952832027453125,0,0,0,1
1.894623325337341,-0.10554955423170986,-0.20122293027453123,0,0,0,1
1.894623325337341,-0.10554955423170986,-0.20122293027453123,0,0,0,1
1.894623325337341,-0.10554955423170986,-0.20122293027453123,0,0,0,1
-0.35406063466265913,1.23293141576829,-0.31307760027453124,0,0,0,1
-2.961197274662659,0.9604825157682901,-0.23597452027453122,0,0,0,1
-2.6732024746626593,0.012687820768290128,-1.6560120802745313,0,0,0,1
-0.18373249466265912,0.4529713557682901,-0.5449996302745311,0,0,0,1
2.010813225337341,0.2760766157682901,-1.1238656802745313,0,0,0,1
3.805615925337341,-0.32902539423170984,-0.21929923027453124,0,0,0,1
3.5894437253373406,-0.5374141842317098,-0.5543232302745311,0,0,0,1
1.327091725337341,-0.6836434442317099,-0.8112702802745312,0,0,0,1
1.327091725337341,-0.6836434442317099,-0.8112702802745312,0,0,0,1
-0.8187536746626591,-0.8985458842317099,-0.20313612027453123,0,0,0,1
-2.313080774662659,-0.31316531423170985,0.23091467972546878,0,0,0,1
-2.313080774662659,-0.31316531423170985,0.23091467972546878,0,0,0,1
-0.2379011946626591,1.02826331576829,0.26482107972546876,0,0,0,1
-0.2379011946626591,1.02826331576829,0.26482107972546876,0,0,0,1
