acc_x,acc_y,acc_z,gyro_x,gyro_y,gyro_z,label
0.7294240253373409,-0.33834652423170986,-0.6965567202745312,0,0,0,1
-0.5488276346626592,-0.5050393142317099,-0.5676468302745312,0,0,0,1
-1.045172174662659,-0.18124218423170987,-0.3659025802745312,0,0,0,1
-0.8376993746626591,0.2546807757682901,-0.15335229027453123,0,0,0,1
0.5168481253373409,0.5379792657682901,-0.11761466027453123,0,0,0,1
0.2552161253373409,0.41339541576829014,-0.19726393027453124,0,0,0,1
0.2552161253373409,0.41339541576829014,-0.19726393027453124,0,0,0,1
-0.046221240662659105,0.17568497576829012,-0.41601136027453123,0,0,0,1
-0.13002727466265912,0.1740132457682901,-0.6481167802745311,0,0,0,1
-0.14338730466265912,0.5132416657682901,-0.33907941027453126,0,0,0,1
0.19462634533734088,0.4262613157682901,-0.17935416027453122,0,0,0,1
0.3553013953373409,0.10145010576829012,0.05921080572546878,0,0,0,1
0.3553013953373409,0.10145010576829012,0.05921080572546878,0,0,0,1
-0.1708273746626591,0.1542382757682901,-0.20814541027453123,0,0,0,1
0.31288005533734087,-0.06805245423170987,-0.40840028027453124,0,0,0,1
0.32640602533734087,-0.07746295423170987,-0.5867852802745311,0,0,0,1
0.03950549733734089,0.005224067468290129,-0.4221803302745312,0,0,0,1
-0.10278652466265911,0.11365492976829013,-0.27909872027453125,0,0,0,1
-0.18775127466265912,0.2246369457682901,-0.002609999474531225,0,0,0,1
-0.13393257466265912,0.38023083576829014,-0.017670782274531224,0,0,0,1
0.17388011533734088,0.20042632576829011,-0.05857035627453122,0,0,0,1
0.3692717753373409,-0.10224993423170987,-0.16466871027453123,0,0,0,1
0.04385520533734089,-0.29650585423170983,-0.24748024027453122,0,0,0,1
-0.3378844146626591,-0.47886178423170983,-0.32330564027453124,0,0,0,1
-0.2623267046626591,-0.4575176342317099,-0.25006613027453123,0,0,0,1
-0.08827637066265911,0.31814261576829017,-0.08701023627453124,0,0,0,1
0.09991313533734089,0.15444375576829011,-0.13124391627453122,0,0,0,1
0.09991313533734089,0.15444375576829011,-0.13124391627453122,0,0,0,1
0.1300902553373409,-0.26913030423170986,-0.12690619027453123,0,0,0,1
-0.8526167746626591,-0.03136406423170987,-0.23771289027453124,0,0,0,1
-0.8526167746626591,-0.03136406423170987,-0.23771289027453124,0,0,0,1
0.1389422553373409,0.12908311576829012,-0.3431957102745312,0,0,0,1
0.3781237753373409,-0.36326028423170986,-0.7694331102745312,0,0,0,1
0.3781237753373409,-0.36326028423170986,-0.7694331102745312,0,0,0,1
0.5949130253373409,-0.6103750842317098,-0.7561568302745312,0,0,0,1
-0.3017315746626591,0.5813691757682902,-0.18089733027453123,0,0,0,1
-0.2547488046626591,0.9077089157682902,-0.049579234274531224,0,0,0,1
0.8512187253373409,0.16982163576829012,-0.23604808027453122,0,0,0,1
0.8512187253373409,0.16982163576829012,-0.23604808027453122,0,0,0,1
0.5260529653373409,-0.23093388423170988,-0.9371768802745312,0,0,0,1
-0.4186730246626591,-0.8618051242317099,-0.5296967302745311,0,0,0,1
-0.4186730246626591,-0.8618051242317099,-0.5296967302745311,0,0,0,1
-0.4235434346626591,0.5101092657682902,0.3465501197254688,0,0,0,1
0.8700299253373409,1.32197711576829,0.3089717897254688,0,0,0,1
2.499753525337341,0.24377711576829011,-0.08531454027453123,0,0,0,1
2.499753525337341,0.24377711576829011,-0.08531454027453123,0,0,0,1
0.3457627453373409,-1.59419938423171,-0.7807903802745312,0,0,0,1
-1.451937174662659,-0.9230715442317099,-0.6640104802745311,0,0,0,1
-0.4848809046626591,1.24223421576829,0.4573117497254688,0,0,0,1
-0.4848809046626591,1.24223421576829,0.4573117497254688,0,0,0,1
1.646559225337341,0.9198810157682902,0.6474526197254689,0,0,0,1
2.216865125337341,-0.26596776423170987,0.08015951372546877,0,0,0,1
2.216865125337341,-0.26596776423170987,0.08015951372546877,0,0,0,1
1.944271625337341,-0.6579063342317099,-0.31479958027453125,0,0,0,1
-1.199700774662659,0.44852371576829014,-0.36411753027453125,0,0,0,1
-2.316855874662659,0.8233802457682902,-0.2684844402745312,0,0,0,1
-2.316855874662659,0.8233802457682902,-0.2684844402745312,0,0,0,1
0.4344954653373409,-0.7285779842317098,-0.31721368027453123,0,0,0,1
1.270851625337341,-0.9455817842317099,-0.23867616027453123,0,0,0,1
1.675900025337341,-0.4738421842317099,-0.027503581274531227,0,0,0,1
-0.2342963046626591,0.40959807576829016,-0.3625106502745312,0,0,0,1
-0.2342963046626591,0.40959807576829016,-0.3625106502745312,0,0,0,1
-0.9074530446626591,-0.06712950423170987,-0.8548352802745312,0,0,0,1
-1.006359574662659,-0.4899302542317099,-1.0974750802745312,0,0,0,1
-0.2605404746626591,-1.11373288423171,-0.7155355802745311,0,0,0,1
0.3499922953373409,-0.4991116342317099,-0.6035604202745312,0,0,0,1
0.5858531253373409,0.23675172576829012,-0.47085300027453125,0,0,0,1
0.5858531253373409,0.23675172576829012,-0.47085300027453125,0,0,0,1
0.5858531253373409,0.23675172576829012,-0.47085300027453125,0,0,0,1
0.2286505853373409,1.0902336157682901,-0.18646029027453123,0,0,0,1
-0.9772228746626591,-0.11022190423170987,-0.31192902027453123,0,0,0,1
-0.021735651662659106,0.2161657557682901,-0.12339559027453123,0,0,0,1
0.8489918853373409,0.3888554457682901,-0.19277778027453124,0,0,0,1
0.8489918853373409,0.3888554457682901,-0.19277778027453124,0,0,0,1
0.1455159353373409,0.6558451857682901,-0.35476223027453124,0,0,0,1
0.09931422533734088,-0.5502208242317098,-0.2883425102745312,0,0,0,1
0.7117295253373409,0.08953814576829013,0.15669676972546878,0,0,0,1
0.7117295253373409,0.08953814576829013,0.15669676972546878,0,0,0,1
0.8504014253373409,0.2476975057682901,0.30403491972546876,0,0,0,1
-0.8476919746626591,0.04274539976829013,0.24174936972546876,0,0,0,1
-0.2499346546626591,-0.34490160423170985,0.20920028972546878,0,0,0,1
-0.2499346546626591,-0.34490160423170985,0.20920028972546878,0,0,0,1
-0.07427643466265911,0.22063911576829012,-0.21166894027453123,0,0,0,1
0.10531760533734089,0.39101581576829014,-0.23536429027453123,0,0,0,1
-0.8814797246626591,0.46277761576829013,-0.3791309302745312,0,0,0,1
-0.8814797246626591,0.46277761576829013,-0.3791309302745312,0,0,0,1
-0.23026035466265912,0.42022116576829016,0.36187388972546874,0,0,0,1
0.004876629337340894,0.2352615057682901,0.09662082972546877,0,0,0,1
1.197828825337341,-0.6281252842317099,-0.13782099027453124,0,0,0,1
1.197828825337341,-0.6281252842317099,-0.13782099027453124,0,0,0,1
-0.1327309446626591,0.39811368576829015,0.10746541472546876,0,0,0,1
0.5058970653373409,0.10269545576829013,-0.7449399802745311,0,0,0,1
0.2644486553373409,-0.26223121423170986,-1.0496580802745312,0,0,0,1
-1.146246374662659,0.08889751576829014,-0.40190616027453124,0,0,0,1
-1.146246374662659,0.08889751576829014,-0.40190616027453124,0,0,0,1
-2.1915425746626593,0.5132110157682901,-0.12093475627453124,0,0,0,1
-1.613384674662659,0.5140612157682901,0.009445754725468773,0,0,0,1
0.4084487253373409,-0.08113230423170988,0.04076215472546878,0,0,0,1
1.752476225337341,-0.5056775842317098,-0.2733909202745312,0,0,0,1
0.17100192533734088,-0.7881139342317098,-0.6199820402745312,0,0,0,1
-0.7884640746626591,-0.35421685423170984,0.07011624972546877,0,0,0,1
-0.7884640746626591,-0.35421685423170984,0.07011624972546877,0,0,0,1
-1.499834474662659,0.6177215157682902,0.14200016972546878,0,0,0,1
1.305308825337341,0.31456358576829013,-0.03717389827453122,0,0,0,1
2.4157577253373406,-0.5535005142317099,-0.43810395027453125,0,0,0,1
1.600824825337341,-0.8218077842317099,-0.6338515802745311,0,0,0,1
-0.3387846746626591,-0.04698191423170987,0.3731931697254688,0,0,0,1
-0.3387846746626591,-0.04698191423170987,0.3731931697254688,0,0,0,1
-0.9224362246626591,0.7926045857682902,1.0963988197254688,0,0,0,1
2.082562025337341,-0.06078891423170987,0.6514016197254688,0,0,0,1
2.082562025337341,-0.06078891423170987,0.6514016197254688,0,0,0,1
2.666756125337341,-0.9811004842317098,-0.7795968402745311,0,0,0,1
1.013242225337341,-0.1269404442317099,-1.1032472802745312,0,0,0,1
-0.22919987466265912,0.7839337757682902,-0.7603887802745312,0,0,0,1
-1.644715774662659,1.22848731576829,-0.26382168027453123,0,0,0,1
-2.3823194746626593,1.01518851576829,-0.9455998302745312,0,0,0,1
-0.14051864466265912,-0.1389894342317099,-0.7221564402745312,0,0,0,1
2.831083725337341,-1.07790928423171,-0.07999125027453123,0,0,0,1
-0.8913292746626591,0.009498674168290129,1.145956219725469,0,0,0,1
-0.8913292746626591,0.009498674168290129,1.145956219725469,0,0,0,1
-1.580988374662659,-0.09662185423170987,0.17165001972546878,0,0,0,1
-1.580988374662659,-0.09662185423170987,0.17165001972546878,0,0,0,1
0.6696973253373409,-0.6869714842317098,-0.43814424027453125,0,0,0,1
2.097590925337341,-0.6895179842317098,-0.6490912802745312,0,0,0,1
2.097590925337341,-0.6895179842317098,-0.6490912802745312,0,0,0,1
0.8564963253373409,0.40507181576829016,-1.291707680274531,0,0,0,1
0.6165318653373408,0.4173768957682901,-1.346431680274531,0,0,0,1
0.7340674553373409,0.030010122768290126,-1.2573877802745312,0,0,0,1
0.7340674553373409,0.030010122768290126,-1.2573877802745312,0,0,0,1
0.5158715253373409,-0.48104084423170984,0.09696861972546877,0,0,0,1
0.6622691253373408,-0.07523391823170987,0.24092521972546876,0,0,0,1
-0.2887692246626591,-0.29539964423170983,-0.10499015627453123,0,0,0,1
-0.2887692246626591,-0.29539964423170983,-0.10499015627453123,0,0,0,1
-0.6921753746626591,-0.10763133423170987,-0.5709996802745312,0,0,0,1
-0.09554813466265911,0.33432774576829016,-0.7902087302745312,0,0,0,1
-0.09554813466265911,0.33432774576829016,-0.7902087302745312,0,0,0,1
0.7890429653373409,0.21892090576829012,-0.7865420802745312,0,0,0,1
0.8230748253373409,0.01997392176829013,-0.5453187802745312,0,0,0,1
0.2215647853373409,-0.22085936423170988,-0.27882221027453125,0,0,0,1
-0.5053591746626591,-0.36983002423170985,0.15861805972546877,0,0,0,1
-0.9395527746626591,0.03436656576829013,0.7471902197254688,0,0,0,1
-0.8476490746626592,0.5229871457682902,0.7710345697254688,0,0,0,1
1.303387225337341,-0.15714706423170988,0.010865656725468773,0,0,0,1
1.481879725337341,-0.43024764423170986,-0.5290285802745311,0,0,0,1
0.6430382853373409,-0.4053426842317099,-0.7791244102745312,0,0,0,1
-0.8451475746626591,0.1891713657682901,-0.21927706027453123,0,0,0,1
-0.7372584146626591,0.6753109157682902,0.012855259725468773,0,0,0,1
1.384302625337341,0.06913189576829012,0.40178039972546875,0,0,0,1
1.431297825337341,-0.33119426423170983,0.4182381897254688,0,0,0,1
-0.4058356146626591,-0.17124311423170988,0.30708839972546875,0,0,0,1
-0.4058356146626591,-0.17124311423170988,0.30708839972546875,0,0,0,1
-0.8850655346626591,0.32954047576829015,0.2747264197254688,0,0,0,1
1.132175025337341,-0.34765703423170985,-0.7765093202745311,0,0,0,1
-0.22216938466265912,-0.5870076242317098,-0.6917338802745312,0,0,0,1
-0.8432516746626592,0.9054330757682901,0.8054530197254688,0,0,0,1
-0.8432516746626592,0.9054330757682901,0.8054530197254688,0,0,0,1
1.399683525337341,0.22000898576829012,-0.05113402027453122,0,0,0,1
1.101287425337341,-0.27615804423170986,-0.7532979802745312,0,0,0,1
-0.2536930846626591,-0.19747294423170988,-0.8229567102745312,0,0,0,1
-1.469328374662659,0.34162751576829015,-0.7737035802745311,0,0,0,1
-1.381123974662659,1.2466863157682901,-0.36804143027453123,0,0,0,1
-1.381123974662659,1.2466863157682901,-0.36804143027453123,0,0,0,1
1.172877825337341,0.5651405157682902,-0.4443787602745312,0,0,0,1
2.0217700253373407,-0.6349951442317099,-0.19422212027453123,0,0,0,1
1.684610825337341,-1.3397318842317099,-0.42296663027453124,0,0,0,1
1.684610825337341,-1.3397318842317099,-0.42296663027453124,0,0,0,1
