acc_x,acc_y,acc_z,gyro_x,gyro_y,gyro_z,label
1.689442125337341,0.26081253576829017,-0.7335049802745311,0,0,0,1
1.689442125337341,0.26081253576829017,-0.7335049802745311,0,0,0,1
0.3360915253373409,0.6761325157682901,0.24270215972546877,0,0,0,1
-0.20636604466265912,1.38211931576829,0.4887180597254688,0,0,0,1
-0.20636604466265912,1.38211931576829,0.4887180597254688,0,0,0,1
1.417083325337341,-0.43423328423170987,0.5976121697254688,0,0,0,1
1.216450225337341,-0.6280282842317099,-0.007653804164531226,0,0,0,1
1.216450225337341,-0.6280282842317099,-0.007653804164531226,0,0,0,1
-0.21816204466265912,-0.11861715823170987,-0.41812262027453123,0,0,0,1
0.3601555953373409,0.05694754776829013,0.09370228472546877,0,0,0,1
0.3601555953373409,0.05694754776829013,0.09370228472546877,0,0,0,1
-0.7188553746626591,1.2798507157682901,0.12979943972546876,0,0,0,1
-0.7188553746626591,1.2798507157682901,0.12979943972546876,0,0,0,1
0.8294244253373408,-0.04500333623170987,-0.10693836027453123,0,0,0,1
0.8294244253373408,-0.04500333623170987,-0.10693836027453123,0,0,0,1
0.5290274753373408,1.14848661576829,-0.35040110027453125,0,0,0,1
0.7334981253373409,0.5781196157682902,-0.17747027027453122,0,0,0,1
0.1972642153373409,0.33233041576829014,-0.41264568027453125,0,0,0,1
0.1972642153373409,0.33233041576829014,-0.41264568027453125,0,0,0,1
-0.12747333466265912,1.23939281576829,-0.33838275027453124,0,0,0,1
0.8281569653373408,0.8231157157682901,-0.06335875527453122,0,0,0,1
0.8281569653373408,0.8231157157682901,-0.06335875527453122,0,0,0,1
0.9099936653373409,0.02805544776829013,-0.03480836927453122,0,0,0,1
0.21355868533734088,-0.16382102423170988,-0.040247920274531224,0,0,0,1
-0.3302378446626591,-0.17363755423170987,0.014901159725468772,0,0,0,1
0.1752944153373409,-0.06653485823170988,0.2738905197254688,0,0,0,1
0.4759497753373409,0.02788295176829013,0.5665963197254689,0,0,0,1
0.4759497753373409,0.02788295176829013,0.5665963197254689,0,0,0,1
0.1299433853373409,0.6688789157682902,0.29688501972546877,0,0,0,1
0.15976192533734088,0.44785061576829016,-0.06576755827453122,0,0,0,1
-0.3983521346626591,-0.3587710042317099,-0.32139948027453125,0,0,0,1
0.8352294253373409,-0.2133944442317099,-0.27275788027453124,0,0,0,1
0.8352294253373409,-0.2133944442317099,-0.27275788027453124,0,0,0,1
1.441314225337341,0.6741608557682901,0.08053767572546877,0,0,0,1
-0.0014529066626591054,0.4614962557682901,0.20724155972546876,0,0,0,1
-0.8862690746626591,-0.2530452442317099,0.5804705197254688,0,0,0,1
-0.5981364046626592,0.2050302157682901,-0.021997960274531225,0,0,0,1
-0.5981364046626592,0.2050302157682901,-0.021997960274531225,0,0,0,1
0.8749337253373409,0.31558813576829015,0.07009754972546876,0,0,0,1
0.8749337253373409,0.31558813576829015,0.07009754972546876,0,0,0,1
1.696062625337341,0.28288759576829015,-0.13311499027453122,0,0,0,1
0.6816182253373408,-0.26914922423170984,-0.26217276027453124,0,0,0,1
0.1530690353373409,0.7090044157682901,0.08547748472546877,0,0,0,1
0.1530690353373409,0.7090044157682901,0.08547748472546877,0,0,0,1
-0.4852557046626591,1.40179721576829,0.24476143972546877,0,0,0,1
-0.3094763546626591,1.07433071576829,0.3949210197254688,0,0,0,1
0.3757300553373409,-0.7465256242317099,0.19716849972546877,0,0,0,1
0.3757300553373409,-0.7465256242317099,0.19716849972546877,0,0,0,1
1.385504225337341,-0.46964005423170985,0.2501706197254688,0,0,0,1
1.543198125337341,0.3973765557682901,0.14912197972546878,0,0,0,1
1.543198125337341,0.3973765557682901,0.14912197972546878,0,0,0,1
-0.1816925846626591,0.6231309157682902,-0.13364282027453123,0,0,0,1
-0.014122469662659107,-0.14207373423170988,-0.04826465427453122,0,0,0,1
0.23860026533734088,-0.4093322542317099,-0.26410580027453123,0,0,0,1
0.4093508853373409,-0.45071415423170985,0.06495315972546876,0,0,0,1
0.4093508853373409,-0.45071415423170985,0.06495315972546876,0,0,0,1
0.6808648253373409,-0.3210958642317099,0.12143082972546876,0,0,0,1
0.6808648253373409,-0.3210958642317099,0.12143082972546876,0,0,0,1
-0.06399105466265911,0.7239166657682902,0.0052302167254687755,0,0,0,1
0.5059218553373409,0.39841713576829013,0.2466196397254688,0,0,0,1
0.09266235033734088,0.5633466157682901,-0.4450942302745312,0,0,0,1
0.09266235033734088,0.5633466157682901,-0.4450942302745312,0,0,0,1
0.2558188553373409,0.16647507576829013,-0.5416151802745311,0,0,0,1
0.6729922253373409,0.25386716576829016,-0.15875739027453123,0,0,0,1
0.048780935337340896,0.5242139157682901,-0.27933961027453125,0,0,0,1
-0.1376414146626591,0.3501401157682901,0.27614791972546876,0,0,0,1
0.7891802953373409,-0.29405592423170984,-0.4449802402745312,0,0,0,1
0.7891802953373409,-0.29405592423170984,-0.4449802402745312,0,0,0,1
-0.2718043146626591,-0.31281672423170986,-0.16347331027453124,0,0,0,1
-0.2843251046626591,0.29462327576829017,0.15628118972546878,0,0,0,1
0.09195567533734089,0.21459855576829012,0.3955014597254688,0,0,0,1
-0.7746290746626591,-0.48226724423170986,0.12194346972546877,0,0,0,1
-0.7746290746626591,-0.48226724423170986,0.12194346972546877,0,0,0,1
-0.48631714466265913,-0.9702628842317098,0.19533368972546877,0,0,0,1
0.2748942553373409,-0.6974014842317099,0.5861093697254688,0,0,0,1
2.099837725337341,1.3783461157682901,-0.16110250027453124,0,0,0,1
2.099837725337341,1.3783461157682901,-0.16110250027453124,0,0,0,1
2.099837725337341,1.3783461157682901,-0.16110250027453124,0,0,0,1
2.099837725337341,1.3783461157682901,-0.16110250027453124,0,0,0,1
-1.199552974662659,-0.6414146242317098,-0.1306173202745312,0,0,0,1
-1.005830274662659,-0.3247529042317099,0.16289564972546877,0,0,0,1
-1.005830274662659,-0.3247529042317099,0.16289564972546877,0,0,0,1
-0.6055016346626592,0.5323778557682901,0.6775800197254688,0,0,0,1
-0.6055016346626592,0.5323778557682901,0.6775800197254688,0,0,0,1
0.4430213253373409,-0.43721668423170984,0.09542253472546877,0,0,0,1
0.4430213253373409,-0.43721668423170984,0.09542253472546877,0,0,0,1
-0.1736464346626591,0.0027885620382901285,-0.19122818027453123,0,0,0,1
0.17883350533734088,0.1650737657682901,-0.24694364027453122,0,0,0,1
0.17883350533734088,0.1650737657682901,-0.24694364027453122,0,0,0,1
0.22689296533734088,-0.17507813423170987,0.30064817972546876,0,0,0,1
0.22689296533734088,-0.17507813423170987,0.30064817972546876,0,0,0,1
0.6686167853373409,0.21583964576829012,0.22318907972546878,0,0,0,1
0.8047576253373409,-0.05756126023170987,0.11945983972546878,0,0,0,1
0.8047576253373409,-0.05756126023170987,0.11945983972546878,0,0,0,1
0.8047576253373409,-0.05756126023170987,0.11945983972546878,0,0,0,1
-0.5373091746626592,-0.7448755842317099,-0.29210268027453123,0,0,0,1
-0.8332257146626592,-0.25047181423170983,-0.13569158027453124,0,0,0,1
0.7591242953373409,0.6319330157682902,0.06888757472546878,0,0,0,1
1.652614125337341,1.03869471576829,0.06927042972546878,0,0,0,1
1.891766125337341,0.7155471157682901,-0.09704006027453123,0,0,0,1
1.891766125337341,0.7155471157682901,-0.09704006027453123,0,0,0,1
0.16702796533734088,-0.6619145842317099,0.06559729472546877,0,0,0,1
-1.889136774662659,0.09736134576829013,-0.019868569274531227,0,0,0,1
-0.9965567446626591,0.0046043579682901285,0.5964501797254689,0,0,0,1
-0.9965567446626591,0.0046043579682901285,0.5964501797254689,0,0,0,1
0.5178647253373408,0.05906524076829013,0.28160914972546874,0,0,0,1
2.941774825337341,-0.1690107442317099,-0.17868257027453122,0,0,0,1
2.941774825337341,-0.1690107442317099,-0.17868257027453122,0,0,0,1
2.941774825337341,-0.1690107442317099,-0.17868257027453122,0,0,0,1
0.8133588253373409,0.42152335576829014,-0.17402044027453123,0,0,0,1
-0.9404120246626592,0.39754451576829014,-0.5193910302745312,0,0,0,1
-0.9404120246626592,0.39754451576829014,-0.5193910302745312,0,0,0,1
-0.6527638246626591,-0.21664879423170988,0.2990810597254688,0,0,0,1
-0.6525244746626591,-0.21734784423170989,0.3056206997254688,0,0,0,1
1.9983516253373408,-0.5272518842317099,0.13514780972546878,0,0,0,1
1.9983516253373408,-0.5272518842317099,0.13514780972546878,0,0,0,1
-1.253667374662659,-0.47522876423170984,0.2642979197254688,0,0,0,1
-1.253667374662659,-0.47522876423170984,0.2642979197254688,0,0,0,1
-1.253667374662659,-0.47522876423170984,0.2642979197254688,0,0,0,1
-1.442876274662659,0.32987429576829014,-0.21539639027453122,0,0,0,1
-1.442876274662659,0.32987429576829014,-0.21539639027453122,0,0,0,1
0.031105535337340895,0.08393551576829013,-0.34326580027453124,0,0,0,1
0.031105535337340895,0.08393551576829013,-0.34326580027453124,0,0,0,1
1.556679225337341,-0.4686393542317099,-0.6837194302745312,0,0,0,1
1.556679225337341,-0.4686393542317099,-0.6837194302745312,0,0,0,1
0.7406821253373409,0.05804600176829013,0.009763179725468772,0,0,0,1
-1.204523574662659,0.5468514157682901,0.3836695797254688,0,0,0,1
-1.204523574662659,0.5468514157682901,0.3836695797254688,0,0,0,1
-0.19141243466265911,0.05877544376829013,-0.20465756027453122,0,0,0,1
-0.19141243466265911,0.05877544376829013,-0.20465756027453122,0,0,0,1
-0.19141243466265911,0.05877544376829013,-0.20465756027453122,0,0,0,1
-0.0328430966626591,0.9996384557682901,0.27132971972546877,0,0,0,1
-0.0328430966626591,0.9996384557682901,0.27132971972546877,0,0,0,1
0.1679902253373409,0.6490087657682901,0.10996894972546876,0,0,0,1
-0.1692614346626591,-0.8168843242317099,-0.31021288027453126,0,0,0,1
-0.5527348346626592,-0.07631157023170987,0.16297221972546877,0,0,0,1
0.2932324553373409,0.1849891157682901,0.26220591972546875,0,0,0,1
0.8808713253373409,0.0015405599682901286,0.09959718472546877,0,0,0,1
0.8357243653373408,-0.2197238042317099,0.4850525497254688,0,0,0,1
0.8357243653373408,-0.2197238042317099,0.4850525497254688,0,0,0,1
1.738910225337341,-1.57878898423171,0.7106399797254688,0,0,0,1
-0.4105028946626591,1.4211454157682901,0.5401057197254688,0,0,0,1
-0.4083885946626591,1.40617811576829,0.5264290897254689,0,0,0,1
0.8523383253373409,-0.38317773423170987,-0.03456228427453122,0,0,0,1
0.8523383253373409,-0.38317773423170987,-0.03456228427453122,0,0,0,1
0.8525977253373409,-0.38402031423170985,-0.5644857802745312,0,0,0,1
0.8525977253373409,-0.38402031423170985,-0.5644857802745312,0,0,0,1
2.4031854253373406,-0.7394007842317099,-0.6055688802745312,0,0,0,1
-1.357148674662659,1.0775787157682901,0.7272398197254688,0,0,0,1
-1.357148674662659,1.0775787157682901,0.7272398197254688,0,0,0,1
-1.357148674662659,1.0775787157682901,0.7272398197254688,0,0,0,1
1.694052225337341,0.21446599576829012,0.040720054725468774,0,0,0,1
3.4643427253373407,0.9578377157682901,0.2945399197254688,0,0,0,1
2.5347695253373406,0.3597032157682901,-0.3859061002745312,0,0,0,1
1.072636125337341,-1.44826268423171,-0.49575532027453123,0,0,0,1
1.072636125337341,-1.44826268423171,-0.49575532027453123,0,0,0,1
-0.6811661746626592,-1.60879868423171,-1.0286697802745313,0,0,0,1
-1.835436274662659,-0.02681563423170987,-1.298511980274531,0,0,0,1
-0.7952866346626591,0.7264230157682902,-0.6644664802745311,0,0,0,1
0.7050423753373409,0.2907507557682901,-0.030250849274531227,0,0,0,1
1.573775725337341,0.1426925857682901,0.22188910972546877,0,0,0,1
3.3701129253373407,0.1797503457682901,0.8440553797254688,0,0,0,1
1.069747425337341,0.5113621157682902,-0.21236099027453123,0,0,0,1
-1.387197974662659,0.1374478557682901,-0.6958634802745312,0,0,0,1
-1.387197974662659,0.1374478557682901,-0.6958634802745312,0,0,0,1
-0.9039215746626591,-0.08395145423170987,-0.8357488802745312,0,0,0,1
-0.9039215746626591,-0.08395145423170987,-0.8357488802745312,0,0,0,1
3.522204925337341,-0.13739738423170988,-0.11256030027453123,0,0,0,1
2.868793025337341,-0.9639031842317098,-0.42300394027453125,0,0,0,1
0.8704514653373409,-1.67558858423171,-0.5393173802745311,0,0,0,1
0.8704514653373409,-1.67558858423171,-0.5393173802745311,0,0,0,1
0.3627619953373409,-0.6416077842317098,0.09152376972546877,0,0,0,1
0.3627619953373409,-0.6416077842317098,0.09152376972546877,0,0,0,1
-2.1568851746626594,-0.5279678542317099,0.3526150897254688,0,0,0,1
0.0541262783373409,-0.7972268242317099,0.8090466197254689,0,0,0,1
0.2918639253373409,0.7953503157682902,0.38338021972546876,0,0,0,1
0.2918639253373409,0.7953503157682902,0.38338021972546876,0,0,0,1
2.6217867253373406,-0.6958765842317098,-0.33997968027453124,0,0,0,1
0.2263875153373409,-1.37355118423171,-0.6776865802745312,0,0,0,1
-1.839857074662659,-0.8258047842317099,-1.3167467802745312,0,0,0,1
-0.7116570346626591,-0.37635974423170987,-0.21364868027453124,0,0,0,1
1.094346525337341,0.36670483576829016,-0.33808753027453126,0,0,0,1
1.204619925337341,0.6885910157682902,-0.09401107027453123,0,0,0,1
1.412963425337341,-1.14868758423171,0.4261011797254688,0,0,0,1
1.412963425337341,-1.14868758423171,0.4261011797254688,0,0,0,1
-1.147388874662659,-0.6177167842317098,0.2503459697254688,0,0,0,1
-0.9182791746626591,0.4372394157682901,0.3525741997254688,0,0,0,1
-0.1526322246626591,-0.4589996142317099,-0.17327750027453123,0,0,0,1
-0.38221023466265913,-1.42273658423171,0.06440662972546878,0,0,0,1
-0.38221023466265913,-1.42273658423171,0.06440662972546878,0,0,0,1
-0.7148194146626591,-1.34831988423171,-0.24677180027453122,0,0,0,1
