acc_x,acc_y,acc_z,gyro_x,gyro_y,gyro_z,label
3.3586602253373408,0.7056856157682901,-0.06744396827453122,0,0,0,1
1.079227925337341,0.7453474557682901,-1.1057903802745312,0,0,0,1
1.079227925337341,0.7453474557682901,-1.1057903802745312,0,0,0,1
-1.385448874662659,-0.09845520423170986,-1.318883180274531,0,0,0,1
-1.385448874662659,-0.09845520423170986,-1.318883180274531,0,0,0,1
-2.604539274662659,-1.00860258423171,-1.1470488802745311,0,0,0,1
-2.3730315746626593,-1.3533534842317099,-0.25444949027453123,0,0,0,1
-0.7001099446626591,-0.42634074423170987,0.6867728197254688,0,0,0,1
-0.7001099446626591,-0.42634074423170987,0.6867728197254688,0,0,0,1
1.332375025337341,0.06960770576829013,0.6307908197254688,0,0,0,1
3.033938925337341,0.5941138157682901,0.7888595697254688,0,0,0,1
1.232718925337341,0.16128791576829013,-0.31131122027453123,0,0,0,1
-1.018833574662659,-1.52395708423171,-0.5745552802745312,0,0,0,1
-2.6738118746626593,-1.64672458423171,-1.4626989802745312,0,0,0,1
-2.474008974662659,-0.3834637242317099,-0.24588098027453123,0,0,0,1
-0.5018181746626591,1.3863225157682901,-0.2679443802745312,0,0,0,1
2.1865649253373407,2.3823509157682903,-0.15189394027453124,0,0,0,1
3.174610725337341,2.0218804157682904,-0.14375684027453123,0,0,0,1
3.174610725337341,2.0218804157682904,-0.14375684027453123,0,0,0,1
1.735371125337341,-1.40646298423171,-1.0342601802745313,0,0,0,1
1.735371125337341,-1.40646298423171,-1.0342601802745313,0,0,0,1
0.13057567533734088,-2.1555735842317096,-1.0815081802745312,0,0,0,1
0.13057567533734088,-2.1555735842317096,-1.0815081802745312,0,0,0,1
-1.796277474662659,-1.74037638423171,-0.32457805027453124,0,0,0,1
-2.0455898746626593,0.07505368076829012,0.26010456972546875,0,0,0,1
-0.9142975746626592,1.39847351576829,1.2482184197254689,0,0,0,1
0.2006678753373409,1.67587241576829,0.5661631497254688,0,0,0,1
1.250997125337341,-0.5013020842317099,0.07963577972546877,0,0,0,1
2.4161487253373406,-2.6487104842317097,-0.7985458802745312,0,0,0,1
1.879684025337341,-2.4270320842317097,-0.7719034302745311,0,0,0,1
-0.8721289746626592,2.71031811576829,0.9429939197254689,0,0,0,1
-0.8721289746626592,2.71031811576829,0.9429939197254689,0,0,0,1
-0.03480766566265911,3.4587791157682903,1.1060001197254687,0,0,0,1
-0.03480766566265911,3.4587791157682903,1.1060001197254687,0,0,0,1
0.16839744533734088,0.26638551576829017,-1.355942980274531,0,0,0,1
0.16839744533734088,0.26638551576829017,-1.355942980274531,0,0,0,1
-1.865809874662659,-1.09442468423171,-0.7351140802745312,0,0,0,1
-1.865809874662659,-1.09442468423171,-0.7351140802745312,0,0,0,1
-1.942441474662659,0.6876940157682901,0.5274297897254688,0,0,0,1
-0.19654606466265911,0.6930099157682902,1.455984319725469,0,0,0,1
-0.19654606466265911,0.6930099157682902,1.455984319725469,0,0,0,1
2.0260053253373407,-0.20453831423170987,1.2042249197254689,0,0,0,1
2.0260053253373407,-0.20453831423170987,1.2042249197254689,0,0,0,1
-1.117817374662659,0.6811143157682902,-0.27800161027453124,0,0,0,1
-2.746673074662659,0.8053375157682902,-0.9092648302745312,0,0,0,1
-3.0258454746626593,0.6075841157682902,-1.3735206802745312,0,0,0,1
-1.965006374662659,-0.1660770842317099,-0.9681729402745312,0,0,0,1
-0.3925537946626591,-0.1782748842317099,-0.7500333802745311,0,0,0,1
-0.3925537946626591,-0.1782748842317099,-0.7500333802745311,0,0,0,1
-0.3925537946626591,-0.1782748842317099,-0.7500333802745311,0,0,0,1
2.163965725337341,0.5568868157682901,0.33853688972546875,0,0,0,1
0.5783391253373409,0.45419009576829017,1.113469119725469,0,0,0,1
0.5783391253373409,0.45419009576829017,1.113469119725469,0,0,0,1
-2.3989286746626592,-0.2338959542317099,1.046584619725469,0,0,0,1
-1.296246974662659,-0.8686382842317099,0.5857002197254688,0,0,0,1
0.09408904533734089,-0.2374641442317099,0.28922429972546876,0,0,0,1
0.09408904533734089,-0.2374641442317099,0.28922429972546876,0,0,0,1
1.337226425337341,1.17306141576829,-0.29849786027453123,0,0,0,1
2.0221801253373406,0.5562534557682901,-0.6569728802745312,0,0,0,1
2.0221801253373406,0.5562534557682901,-0.6569728802745312,0,0,0,1
1.484530925337341,-0.7830153542317099,-0.9426048102745311,0,0,0,1
-0.2853073946626591,-1.53012708423171,-0.42985454027453124,0,0,0,1
-1.671923174662659,-1.17340468423171,-0.16658008027453122,0,0,0,1
-0.8794035746626591,0.37847141576829013,1.5769686197254689,0,0,0,1
-0.8794035746626591,0.37847141576829013,1.5769686197254689,0,0,0,1
0.5755639253373409,0.8064817157682902,1.218154619725469,0,0,0,1
1.110338725337341,-1.49842348423171,-0.7503805802745311,0,0,0,1
1.110338725337341,-1.49842348423171,-0.7503805802745311,0,0,0,1
0.007622258337340894,-0.43753693423170986,-0.7307640802745312,0,0,0,1
-0.5266537746626591,0.8308831657682901,-0.5456986102745311,0,0,0,1
-0.5266537746626591,0.8308831657682901,-0.5456986102745311,0,0,0,1
-0.24191330466265912,1.32582291576829,-0.6616601802745312,0,0,0,1
0.6167254653373409,0.42691894576829015,-0.5275714802745312,0,0,0,1
1.305403225337341,-0.6632012842317099,-0.5425468802745311,0,0,0,1
1.305403225337341,-0.6632012842317099,-0.5425468802745311,0,0,0,1
1.224462025337341,-0.8131048542317099,-0.7147773802745312,0,0,0,1
0.4763217253373409,-0.2042452042317099,-0.013448776274531225,0,0,0,1
0.09108020533734089,-0.4561954542317099,-0.03871062527453122,0,0,0,1
0.09108020533734089,-0.4561954542317099,-0.03871062527453122,0,0,0,1
1.609990625337341,-0.44323132423170986,-0.17174140027453122,0,0,0,1
0.5251975253373409,0.28919796576829015,0.15733741972546877,0,0,0,1
0.5251975253373409,0.28919796576829015,0.15733741972546877,0,0,0,1
0.5251975253373409,0.28919796576829015,0.15733741972546877,0,0,0,1
-0.4492363746626591,-0.7190555142317099,-0.3172399802745312,0,0,0,1
-0.4492363746626591,-0.7190555142317099,-0.3172399802745312,0,0,0,1
0.09366847533734089,-1.41293918423171,-0.42303378027453126,0,0,0,1
0.09366847533734089,-1.41293918423171,-0.42303378027453126,0,0,0,1
0.8344912653373409,1.08870291576829,-0.3246558302745312,0,0,0,1
0.8344912653373409,1.08870291576829,-0.3246558302745312,0,0,0,1
0.5648970753373409,0.8048600157682901,0.10069199972546877,0,0,0,1
0.5648970753373409,0.8048600157682901,0.10069199972546877,0,0,0,1
1.107131525337341,-1.40272348423171,-0.17399883027453122,0,0,0,1
-1.061426574662659,1.33432171576829,0.36585276972546876,0,0,0,1
-1.061426574662659,1.33432171576829,0.36585276972546876,0,0,0,1
-1.061426574662659,1.33432171576829,0.36585276972546876,0,0,0,1
-1.398079374662659,0.47301491576829013,0.22603685972546878,0,0,0,1
-1.398079374662659,0.47301491576829013,0.22603685972546878,0,0,0,1
0.13587619533734088,-2.1682877842317096,-0.37644273027453123,0,0,0,1
0.13587619533734088,-2.1682877842317096,-0.37644273027453123,0,0,0,1
2.4643712253373407,-0.19607968423170988,-0.6941280802745312,0,0,0,1
-0.6709227446626591,1.50646971576829,-0.3063474302745312,0,0,0,1
-1.950428974662659,0.47831155576829015,-0.015681059274531225,0,0,0,1
-1.950428974662659,0.47831155576829015,-0.015681059274531225,0,0,0,1
-1.477496574662659,-1.25084378423171,-0.21024209027453122,0,0,0,1
-1.477496574662659,-1.25084378423171,-0.21024209027453122,0,0,0,1
-0.4805388246626591,-2.0432586842317098,-0.17415959027453123,0,0,0,1
2.5976757253373406,-0.1419187842317099,0.013052849725468774,0,0,0,1
2.5976757253373406,-0.1419187842317099,0.013052849725468774,0,0,0,1
3.265932625337341,0.44845564576829017,0.20344919972546877,0,0,0,1
0.9462294753373409,-0.01802177423170987,0.2650554497254688,0,0,0,1
-1.978218574662659,-0.8094495342317098,0.24506949972546876,0,0,0,1
-1.978218574662659,-0.8094495342317098,0.24506949972546876,0,0,0,1
-1.171881174662659,-0.5441674842317099,0.25914185972546877,0,0,0,1
0.19863273533734088,0.4097673157682901,0.013788787725468772,0,0,0,1
1.981055725337341,0.6591702157682902,-0.24973470027453123,0,0,0,1
1.981055725337341,0.6591702157682902,-0.24973470027453123,0,0,0,1
2.956153425337341,-0.22803960423170988,-0.5901252302745311,0,0,0,1
2.956153425337341,-0.22803960423170988,-0.5901252302745311,0,0,0,1
1.751616925337341,-0.8116408842317099,-0.22355226027453123,0,0,0,1
1.751616925337341,-0.8116408842317099,-0.22355226027453123,0,0,0,1
-0.5781998746626591,-1.14335998423171,-0.5641730102745312,0,0,0,1
-1.383485274662659,-0.8654628842317098,-0.3300386802745312,0,0,0,1
-1.209189874662659,-0.6404727542317099,0.2713834897254688,0,0,0,1
-0.9450354446626591,0.11142118576829013,0.22084280972546877,0,0,0,1
2.454450125337341,-0.03907741423170987,0.06945397972546877,0,0,0,1
2.7529445253373406,-0.24671540423170987,-0.2957979502745312,0,0,0,1
2.7529445253373406,-0.24671540423170987,-0.2957979502745312,0,0,0,1
1.019292325337341,-0.1390376842317099,-0.8410341502745312,0,0,0,1
-0.5454211046626591,-0.4471961642317099,-0.5781214802745311,0,0,0,1
-0.5453514746626591,-0.43813080423170986,-0.5874235802745311,0,0,0,1
-2.001091974662659,-0.03638340223170987,-0.2592577802745312,0,0,0,1
0.7620234653373409,-0.8951958842317098,-0.11215991027453123,0,0,0,1
0.7620234653373409,-0.8951958842317098,-0.11215991027453123,0,0,0,1
1.142060725337341,-0.7113015442317099,-0.3452204802745312,0,0,0,1
1.142060725337341,-0.7113015442317099,-0.3452204802745312,0,0,0,1
1.142060725337341,-0.7113015442317099,-0.3452204802745312,0,0,0,1
-0.032052500662659106,0.04911841776829013,0.11729999972546876,0,0,0,1
-0.2313580346626591,0.46852137576829017,0.13302304972546877,0,0,0,1
-0.2313580346626591,0.46852137576829017,0.13302304972546877,0,0,0,1
-1.365547674662659,0.43125581576829014,0.6720779197254688,0,0,0,1
0.3551383253373409,-0.7824162842317098,-0.5018816602745312,0,0,0,1
1.875080625337341,-1.74436878423171,-0.9383347802745312,0,0,0,1
-0.43426273466265913,-0.12123225423170987,0.7842026597254689,0,0,0,1
-0.43426273466265913,-0.12123225423170987,0.7842026597254689,0,0,0,1
-0.4038939346626591,0.6246995157682902,0.21321772972546876,0,0,0,1
-0.4038939346626591,0.6246995157682902,0.21321772972546876,0,0,0,1
1.205812925337341,-0.36134628423170984,0.15011741972546877,0,0,0,1
1.205812925337341,-0.36134628423170984,0.15011741972546877,0,0,0,1
1.205812925337341,-0.36134628423170984,0.15011741972546877,0,0,0,1
0.7880454253373409,-0.5243331842317098,0.009134827725468773,0,0,0,1
-0.5204844346626591,-0.6008406842317099,0.22106081972546876,0,0,0,1
0.07407142533734089,-0.8290081842317099,0.2957966197254688,0,0,0,1
1.251279325337341,-0.44736128423170984,0.23079895972546877,0,0,0,1
1.251279325337341,-0.44736128423170984,0.23079895972546877,0,0,0,1
1.251279325337341,-0.44736128423170984,0.23079895972546877,0,0,0,1
-0.5679421246626591,0.8680134557682901,-0.04041976027453122,0,0,0,1
-0.8970856746626591,-0.7911647842317099,-0.025073142274531227,0,0,0,1
-0.8970856746626591,-0.7911647842317099,-0.025073142274531227,0,0,0,1
0.25801422533734086,-0.36262844423170987,-0.18715758027453122,0,0,0,1
0.25801422533734086,-0.36262844423170987,-0.18715758027453122,0,0,0,1
1.957949225337341,0.10558004976829014,-0.14711550027453124,0,0,0,1
0.7088742253373409,-0.9050044842317099,0.19701885972546876,0,0,0,1
-1.128263974662659,-0.8179809842317098,0.39850471972546875,0,0,0,1
1.271332325337341,-0.05164639423170987,-0.08851129027453122,0,0,0,1
1.271332325337341,-0.05164639423170987,-0.08851129027453122,0,0,0,1
1.271332325337341,-0.05164639423170987,-0.08851129027453122,0,0,0,1
0.6220565253373409,0.2528863157682901,-0.7567636802745312,0,0,0,1
0.6220565253373409,0.2528863157682901,-0.7567636802745312,0,0,0,1
-0.4636053746626591,-0.19898508423170988,-0.23650292027453124,0,0,0,1
-1.105080074662659,0.14010222576829012,0.03197559572546878,0,0,0,1
-1.105080074662659,0.14010222576829012,0.03197559572546878,0,0,0,1
1.934218925337341,-0.05901454023170987,0.27556397972546876,0,0,0,1
1.265618825337341,-1.2252277842317099,-0.21803495027453124,0,0,0,1
1.265618825337341,-1.2252277842317099,-0.21803495027453124,0,0,0,1
1.265618825337341,-1.2252277842317099,-0.21803495027453124,0,0,0,1
0.08184100533734089,-1.58265418423171,-0.6562872202745311,0,0,0,1
0.29629565533734087,-1.07868408423171,-0.28098503027453126,0,0,0,1
0.29629565533734087,-1.07868408423171,-0.28098503027453126,0,0,0,1
-0.4053044146626591,0.22484351576829012,-0.6712445302745311,0,0,0,1
0.4707102953373409,-0.3169930442317099,0.11870288972546877,0,0,0,1
1.027286025337341,-0.2083234042317099,0.4085719597254688,0,0,0,1
1.027286025337341,-0.2083234042317099,0.4085719597254688,0,0,0,1
-0.3059267746626591,0.6738797157682902,-0.4664877402745312,0,0,0,1
-1.849307074662659,0.5285003157682902,0.0010830447254687745,0,0,0,1
-1.716047774662659,-0.41719678423170986,-0.34856858027453125,0,0,0,1
-1.716047774662659,-0.41719678423170986,-0.34856858027453125,0,0,0,1
-1.716047774662659,-0.41719678423170986,-0.34856858027453125,0,0,0,1
1.500045325337341,-0.9894001842317098,-0.3105782002745312,0,0,0,1
2.5339456253373407,-0.6932658342317098,0.07832231972546877,0,0,0,1
2.5339456253373407,-0.6932658342317098,0.07832231972546877,0,0,0,1
2.5339456253373407,-0.6932658342317098,0.07832231972546877,0,0,0,1
-1.336012374662659,-1.03355258423171,0.4706762397254688,0,0,0,1
-1.336012374662659,-1.03355258423171,0.4706762397254688,0,0,0,1
3.2251420253373406,0.9431868157682901,0.19699605972546877,0,0,0,1
3.2251420253373406,0.9431868157682901,0.19699605972546877,0,0,0,1
1.604136025337341,1.03110271576829,-0.8926707802745312,0,0,0,1
-0.28155945466265914,-0.15513597423170988,-0.8305642302745312,0,0,0,1
-0.28155945466265914,-0.15513597423170988,-0.8305642302745312,0,0,0,1
-1.037220474662659,-0.6285326342317099,-0.42980665027453124,0,0,0,1
-1.037220474662659,-0.6285326342317099,-0.42980665027453124,0,0,0,1
-0.9461941746626591,0.30228306576829017,0.006963906725468775,0,0,0,1
-0.9461941746626591,0.30228306576829017,0.006963906725468775,0,0,0,1
-0.1689276546626591,1.1080860157682901,0.040458766725468776,0,0,0,1
2.152446325337341,-1.7742396842317099,-0.08603236027453123,0,0,0,1
2.152446325337341,-1.7742396842317099,-0.08603236027453123,0,0,0,1
-0.2552637746626591,-1.46914708423171,0.4232270997254688,0,0,0,1
-0.2552637746626591,-1.46914708423171,0.4232270997254688,0,0,0,1
0.29239036533734086,0.08337761576829013,1.1642185197254689,0,0,0,1
1.286753225337341,0.6603013157682901,0.8977033797254689,0,0,0,1
1.286753225337341,0.6603013157682901,0.8977033797254689,0,0,0,1
-0.5635962346626591,0.1735871657682901,-0.30779293027453125,0,0,0,1
-0.5635962346626591,0.1735871657682901,-0.30779293027453125,0,0,0,1
