acc_x,acc_y,acc_z,gyro_x,gyro_y,gyro_z,label
-1.698732874662659,-3.14607508423171,2.6423873197254686,0,0,0,1
1.513865025337341,-0.9045921342317098,1.0932096197254688,0,0,0,1
3.926115525337341,0.7109840157682902,-1.6578478802745311,0,0,0,1
4.498432725337341,1.08632421576829,-5.743770680274531,0,0,0,1
4.498432725337341,1.08632421576829,-5.743770680274531,0,0,0,1
4.498432725337341,1.08632421576829,-5.743770680274531,0,0,0,1
-4.772441274662659,1.9549267157682901,0.3836304197254688,0,0,0,1
-4.772441274662659,1.9549267157682901,-0.4595178802745312,0,0,0,1
-5.1103829746626594,1.19682901576829,-0.4595178802745312,0,0,0,1
-3.5999736746626594,-2.7650093842317096,2.0460879197254687,0,0,0,1
-2.240883774662659,-3.4249236842317097,2.6733615197254688,0,0,0,1
6.456716125337341,0.5470559757682901,1.8885346197254689,0,0,0,1
5.193711725337341,2.3443821157682905,-1.8884238802745312,0,0,0,1
5.193711725337341,2.3443821157682905,-1.8884238802745312,0,0,0,1
0.6202473753373409,-0.7508862842317099,2.0068829197254687,0,0,0,1
0.6202473753373409,-0.7508862842317099,2.0068829197254687,0,0,0,1
-7.504291274662659,-1.65307188423171,2.6221363197254686,0,0,0,1
-7.417013674662659,-5.41183278423171,4.716469319725468,0,0,0,1
-7.417013674662659,-5.41183278423171,4.716469319725468,0,0,0,1
-2.5305509746626593,0.49012299576829016,3.6796326197254685,0,0,0,1
2.0403170253373406,2.5860031157682903,-0.5291198202745312,0,0,0,1
8.620287725337342,1.66783381576829,-2.2255022802745312,0,0,0,1
9.89161972533734,0.7881429157682901,-4.564997680274532,0,0,0,1
9.89161972533734,0.7881429157682901,-4.564997680274532,0,0,0,1
5.099871125337341,1.75962811576829,-2.3682811802745314,0,0,0,1
0.8505444653373408,1.32397151576829,-0.4884400102745312,0,0,0,1
0.8505444653373408,1.32397151576829,-0.4884400102745312,0,0,0,1
-8.182408274662658,-1.59097408423171,6.208990819725469,0,0,0,1
-4.40827027466266,-0.33040345423170986,5.939087319725469,0,0,0,1
-4.40827027466266,-0.33040345423170986,5.939087319725469,0,0,0,1
3.5332037253373407,1.93279911576829,-3.3817966802745314,0,0,0,1
9.086460725337341,0.9893070657682902,-3.2417368802745314,0,0,0,1
9.086460725337341,0.9893070657682902,-3.2417368802745314,0,0,0,1
6.4088757253373405,-0.9628674842317099,-5.123893980274532,0,0,0,1
6.4088757253373405,-0.9628674842317099,-5.123893980274532,0,0,0,1
-0.1754145446626591,-0.8135195842317099,1.0967284197254688,0,0,0,1
-5.385678274662659,-0.6865336842317099,3.1479503197254686,0,0,0,1
-6.845016274662659,-0.6186364842317098,4.679178319725469,0,0,0,1
0.1751942753373409,1.75326161576829,-0.3148884502745312,0,0,0,1
4.873656725337341,0.8823672757682901,-3.9142216802745313,0,0,0,1
3.3491092253373407,-0.12930308423170989,-0.8694518802745311,0,0,0,1
-7.125471274662659,1.07096511576829,2.4598300197254686,0,0,0,1
-7.125471274662659,1.07096511576829,2.4598300197254686,0,0,0,1
4.960443025337341,-0.5747651842317099,-0.8729543402745312,0,0,0,1
4.901812125337341,-0.49866658423170984,-4.098638280274532,0,0,0,1
4.901812125337341,-0.49866658423170984,-4.098638280274532,0,0,0,1
2.887932325337341,0.7026788157682902,-1.6850849802745311,0,0,0,1
-0.2163510146626591,1.18554711576829,1.540039719725469,0,0,0,1
-5.43731527466266,1.40874511576829,0.7848859697254689,0,0,0,1
-3.5468177746626592,0.2302246857682901,0.20355146972546878,0,0,0,1
1.851588725337341,-0.6823730242317099,-0.8560803202745312,0,0,0,1
1.851588725337341,-0.6823730242317099,-0.8560803202745312,0,0,0,1
3.2299047253373407,-1.57459708423171,-1.7250288802745313,0,0,0,1
-1.741545174662659,0.5842316157682902,0.5513735697254688,0,0,0,1
-2.9841432746626593,0.8923161157682902,0.35500928972546875,0,0,0,1
-2.848400574662659,0.8599754157682902,0.12509519972546876,0,0,0,1
-1.962249274662659,-0.008739572231709871,0.23284771972546878,0,0,0,1
0.6822505253373409,-1.22408098423171,-0.05610424427453122,0,0,0,1
0.6822505253373409,-1.22408098423171,-0.05610424427453122,0,0,0,1
0.6822505253373409,-1.22408098423171,-0.05610424427453122,0,0,0,1
-0.2512774346626591,0.09187038576829012,-0.3017758802745312,0,0,0,1
0.1333184353373409,0.6981151157682901,2.4127397197254687,0,0,0,1
-0.9702248446626591,0.8078910157682901,1.5029560197254688,0,0,0,1
1.189344925337341,-0.03644911423170987,-1.7676556802745311,0,0,0,1
2.3660837253373406,-0.5847625842317099,-0.7441385102745312,0,0,0,1
1.046000925337341,-1.13925048423171,1.142562019725469,0,0,0,1
-1.150933774662659,-0.8632640842317099,2.2718923197254686,0,0,0,1
-2.0687880746626592,-0.42758458423170986,1.358831019725469,0,0,0,1
0.7776904253373409,0.25889839576829016,0.7344966797254688,0,0,0,1
0.7776904253373409,0.25889839576829016,0.7344966797254688,0,0,0,1
1.277307025337341,0.29107571576829017,-0.4711557302745312,0,0,0,1
1.277307025337341,0.29107571576829017,-0.4711557302745312,0,0,0,1
0.08725692533734089,0.46601845576829015,-0.06213009527453122,0,0,0,1
-1.800595274662659,0.22548625576829012,-0.4098510502745312,0,0,0,1
0.030062215337340895,-0.9890747842317098,2.7030783197254684,0,0,0,1
0.030062215337340895,-0.9890747842317098,2.7030783197254684,0,0,0,1
0.49419832533734087,-0.44855518423170987,1.0810358197254688,0,0,0,1
2.932023525337341,0.12639724076829012,-1.927005080274531,0,0,0,1
2.673191525337341,-0.8183453542317098,-0.43406430027453125,0,0,0,1
2.673191525337341,-0.8183453542317098,-0.43406430027453125,0,0,0,1
-0.1574406446626591,-1.27365108423171,0.9443231497254688,0,0,0,1
-1.069801774662659,0.6994812157682901,0.6139706197254688,0,0,0,1
-1.069801774662659,0.6994812157682901,0.6139706197254688,0,0,0,1
2.7605987253373407,-2.4841463842317095,1.4504172197254688,0,0,0,1
2.7605987253373407,-2.4841463842317095,1.4504172197254688,0,0,0,1
2.7605987253373407,-2.4841463842317095,1.4504172197254688,0,0,0,1
4.260989725337341,-3.54610588423171,-1.4953742802745311,0,0,0,1
4.260989725337341,-3.54610588423171,-1.4953742802745311,0,0,0,1
-0.8969702746626591,2.68682791576829,0.03877770772546878,0,0,0,1
-4.799827274662659,3.9957399157682905,1.8978331197254688,0,0,0,1
-1.942109074662659,1.79266231576829,2.4890811197254687,0,0,0,1
1.051327225337341,-0.4117998842317099,1.5588309197254688,0,0,0,1
6.250340025337341,-1.48895038423171,-1.4718688802745312,0,0,0,1
6.250340025337341,-1.48895038423171,-1.4718688802745312,0,0,0,1
5.464445725337341,0.2805949657682901,-2.0774206802745314,0,0,0,1
1.302729125337341,1.3854999157682901,-0.9135318102745311,0,0,0,1
-3.7907518746626594,0.10805259976829013,1.6592133197254688,0,0,0,1
-3.8138141746626593,-0.8178207842317099,2.1908307197254686,0,0,0,1
-2.5001682746626592,-0.28075416423170985,1.9626813197254689,0,0,0,1
0.9670891953373408,1.22392591576829,2.9032523197254685,0,0,0,1
3.462366625337341,1.75049831576829,0.6399292197254688,0,0,0,1
1.806592525337341,-2.07001258423171,-2.985701080274531,0,0,0,1
1.806592525337341,-2.07001258423171,-2.985701080274531,0,0,0,1
0.2207741853373409,-4.41787578423171,-2.7148711802745313,0,0,0,1
-3.130469274662659,-2.8435825842317097,1.8287024197254689,0,0,0,1
-3.0113706746626594,0.2199692357682901,3.8579123197254686,0,0,0,1
-0.6638998746626591,2.59762141576829,3.6826624197254687,0,0,0,1
2.7599215253373406,3.3714495157682904,-1.6251666802745313,0,0,0,1
2.992934725337341,2.4148355157682904,-2.5263481802745313,0,0,0,1
0.5181908753373409,0.7072226157682902,-2.6151738802745315,0,0,0,1
0.5181908753373409,0.7072226157682902,-2.6151738802745315,0,0,0,1
-1.892298174662659,-0.5865969842317098,2.8757629197254686,0,0,0,1
-0.29647205466265913,1.19886521576829,3.116330319725469,0,0,0,1
1.118130225337341,-1.03555308423171,-3.4230072802745313,0,0,0,1
1.118130225337341,-1.03555308423171,-3.4230072802745313,0,0,0,1
3.441321825337341,-1.1565163842317099,1.1908786197254688,0,0,0,1
-2.4330915746626594,3.5610352157682903,2.2157311197254685,0,0,0,1
-2.4330915746626594,3.5610352157682903,2.2157311197254685,0,0,0,1
0.07613136033734089,-1.97581418423171,-0.6374118802745312,0,0,0,1
3.971385525337341,-3.64253038423171,-0.5175766802745312,0,0,0,1
3.1760611253373408,-1.47616168423171,0.8683147697254688,0,0,0,1
-3.0139889746626594,1.83955491576829,0.30158277972546876,0,0,0,1
-3.0139889746626594,1.83955491576829,0.30158277972546876,0,0,0,1
-3.0139889746626594,1.83955491576829,0.30158277972546876,0,0,0,1
3.294296725337341,0.08274396076829013,-1.976234080274531,0,0,0,1
-0.4344258146626591,-0.2766706842317099,2.0608283197254686,0,0,0,1
-0.4344258146626591,-0.2766706842317099,2.0608283197254686,0,0,0,1
-2.7361216746626593,-0.6653414842317098,1.542079219725469,0,0,0,1
-1.369436774662659,-0.15302006423170988,1.5112223197254688,0,0,0,1
2.949678925337341,0.06330304176829013,-1.3030262802745312,0,0,0,1
2.8377395253373408,-0.3634967042317099,-0.9390444502745312,0,0,0,1
1.638635125337341,-0.06513835423170987,2.031556119725469,0,0,0,1
-1.406385874662659,0.6608898857682901,1.0443296197254688,0,0,0,1
0.1279482953373409,1.0123991157682901,1.748104419725469,0,0,0,1
0.1279482953373409,1.0123991157682901,1.748104419725469,0,0,0,1
2.288589925337341,-1.90897818423171,-2.6606123802745314,0,0,0,1
2.2512927253373407,-0.9527141242317099,1.2094609197254689,0,0,0,1
-1.523176674662659,1.09811001576829,1.6367266197254688,0,0,0,1
-4.145900274662659,2.05059581576829,0.6828898197254688,0,0,0,1
-0.8858027346626591,0.9771724157682902,0.9235772197254688,0,0,0,1
-0.8858027346626591,0.9771724157682902,0.9235772197254688,0,0,0,1
0.7770657653373408,0.49518816576829017,0.49798335972546875,0,0,0,1
2.7645535253373406,-0.5839087842317099,-1.5363171802745312,0,0,0,1
2.7645535253373406,-0.5839087842317099,-1.5363171802745312,0,0,0,1
2.5497622253373406,-0.5097230442317099,-2.5537476802745314,0,0,0,1
-2.9804501746626593,0.2644916957682901,0.9252267797254689,0,0,0,1
-3.656798774662659,-0.32698280423170983,1.366743519725469,0,0,0,1
-3.0602002746626593,-0.39219178423170986,1.2577747197254687,0,0,0,1
-2.0645389746626592,-0.03607181823170987,0.6248515197254688,0,0,0,1
0.11418868533734089,0.2384465557682901,-0.6030922202745311,0,0,0,1
3.1128955253373407,0.17266418576829012,0.05082991572546878,0,0,0,1
3.8190847253373406,-0.26000241423170983,-1.5979244802745312,0,0,0,1
2.716268125337341,0.042568015768290134,-1.5506618802745311,0,0,0,1
-1.267958174662659,1.32549421576829,0.6906927197254689,0,0,0,1
-3.9080633746626594,0.8285521157682901,-0.13687053027453122,0,0,0,1
-3.9080633746626594,0.8285521157682901,-0.13687053027453122,0,0,0,1
-0.3930239546626591,-0.3465020442317099,1.4763187197254688,0,0,0,1
-0.3930239546626591,-0.3465020442317099,1.4763187197254688,0,0,0,1
2.461301325337341,-0.9448002442317098,1.6856038197254688,0,0,0,1
1.986467825337341,1.42478801576829,-0.6506746102745312,0,0,0,1
1.986403025337341,1.4223787157682901,-0.6509920802745311,0,0,0,1
1.986403025337341,1.4223787157682901,-0.6509920802745311,0,0,0,1
-1.783134874662659,-1.1856849842317099,0.5817265197254688,0,0,0,1
-1.783134874662659,-1.1856849842317099,0.5817265197254688,0,0,0,1
0.7476506253373408,-0.9746508842317099,1.4963501197254687,0,0,0,1
