acc_x,acc_y,acc_z,gyro_x,gyro_y,gyro_z,label
2.165339925337341,-0.5672228142317098,-0.7743290802745312,0,0,0,1
-1.258288874662659,1.5231985157682901,1.3719832197254689,0,0,0,1
-0.12207649466265912,1.08416941576829,1.0133447197254688,0,0,0,1
-0.12207649466265912,1.08416941576829,1.0133447197254688,0,0,0,1
1.211748625337341,-0.45762462423170985,0.6445089897254688,0,0,0,1
1.243148325337341,-1.47205568423171,-0.32463530027453125,0,0,0,1
0.7792039253373408,-1.63842608423171,-0.4901872002745312,0,0,0,1
0.7792039253373408,-1.63842608423171,-0.4901872002745312,0,0,0,1
0.2934518053373409,0.6301679757682901,-0.4587006802745312,0,0,0,1
0.2934518053373409,0.6301679757682901,-0.4587006802745312,0,0,0,1
0.11279060033734088,1.18854091576829,-0.5228326802745312,0,0,0,1
0.7137704253373409,-0.03723530123170987,-0.051313430274531224,0,0,0,1
0.7137704253373409,-0.03723530123170987,-0.051313430274531224,0,0,0,1
0.7137704253373409,-0.03723530123170987,0.012349693725468774,0,0,0,1
-0.22263859466265912,-0.46335963423170984,0.012349693725468774,0,0,0,1
-0.6823658746626591,-0.37202988423170985,0.23634084972546876,0,0,0,1
-0.6823658746626591,-0.37202988423170985,0.23634084972546876,0,0,0,1
0.4466719753373409,-0.06477565423170988,0.007484642725468774,0,0,0,1
0.5447755253373409,-0.6164991842317099,-0.3211422302745312,0,0,0,1
1.003003625337341,-0.2105915942317099,-0.39178053027453125,0,0,0,1
1.003003625337341,-0.2105915942317099,-0.39178053027453125,0,0,0,1
1.003003625337341,-0.2105915942317099,-0.39178053027453125,0,0,0,1
-0.6691098046626591,0.6195764757682901,-0.7147902802745312,0,0,0,1
0.2111182353373409,-0.29449568423170985,-0.36554721027453124,0,0,0,1
0.3950133453373409,-0.29117034423170984,-0.17212597027453122,0,0,0,1
-0.4298815546626591,0.12214278076829013,-0.2603806602745312,0,0,0,1
1.381704825337341,-0.7738173842317099,0.3800671397254688,0,0,0,1
1.381704825337341,-0.7738173842317099,0.3800671397254688,0,0,0,1
0.11445094533734089,-0.33364896423170987,0.19598373972546876,0,0,0,1
-0.8664412346626591,0.44396301576829017,0.06688913572546877,0,0,0,1
-0.06574390666265911,-0.1715683742317099,0.07819029572546878,0,0,0,1
0.9176507253373409,0.25427393576829016,-0.027578385274531225,0,0,0,1
0.5756612253373409,1.35729521576829,-0.17353645027453124,0,0,0,1
0.9176507253373409,0.25427393576829016,-0.027578385274531225,0,0,0,1
-0.41443967466265913,-1.18032628423171,-0.8026241402745312,0,0,0,1
-1.403674574662659,-0.6262480842317099,-0.4578965002745312,0,0,0,1
-1.065311874662659,0.1580610557682901,0.27539261972546875,0,0,0,1
-0.0478739576626591,0.28688298576829013,0.4141570597254688,0,0,0,1
-0.0478739576626591,0.28688298576829013,0.4141570597254688,0,0,0,1
0.5799937253373408,0.06490287576829012,0.36828431972546877,0,0,0,1
0.5959048253373409,-0.9727990442317098,0.11863037972546878,0,0,0,1
-0.11372516966265911,-0.9785487442317099,-0.08966628027453123,0,0,0,1
-0.8099322146626591,-0.09887574423170988,-0.20063606027453124,0,0,0,1
-1.198099574662659,0.46284158576829015,-0.4806927802745312,0,0,0,1
-1.289210774662659,0.07367013576829012,-0.28349844027453125,0,0,0,1
-0.8405833046626591,-0.7989293142317099,-0.11807767027453123,0,0,0,1
1.649397425337341,-0.15289173423170987,0.04616138172546878,0,0,0,1
1.919413125337341,-0.12043527923170987,-0.2689421502745312,0,0,0,1
1.919413125337341,-0.12043527923170987,-0.2689421502745312,0,0,0,1
1.099208325337341,0.02378382176829013,-0.1292337502745312,0,0,0,1
-0.2357821346626591,0.5722129557682901,0.05620344972546878,0,0,0,1
-1.772692174662659,0.8490700157682901,0.7341448197254689,0,0,0,1
-1.191390474662659,0.40431283576829014,0.4881528897254688,0,0,0,1
0.9214453853373409,0.020809161768290126,-0.016046436274531225,0,0,0,1
2.027806725337341,-0.42727738423170986,0.08630451372546877,0,0,0,1
1.602947725337341,-0.5915765842317099,-0.5876736802745312,0,0,0,1
0.5738024853373409,-0.6067089842317098,-0.09261170027453124,0,0,0,1
-0.7775997746626591,0.09195748576829013,-0.14343241027453124,0,0,0,1
0.36665392533734087,-0.5206942342317099,0.5264378197254689,0,0,0,1
1.361196025337341,-0.8326950442317098,-0.14882234027453123,0,0,0,1
1.580300825337341,-1.1312001842317099,-0.6482646802745312,0,0,0,1
-0.039128764662659105,0.1874341657682901,0.04542895972546878,0,0,0,1
-1.799694974662659,1.99494161576829,0.37662961972546877,0,0,0,1
-1.485199474662659,1.97904231576829,0.5887076197254688,0,0,0,1
0.8112178253373409,0.5892967757682901,0.22207733972546878,0,0,0,1
1.984644425337341,-0.5381553842317098,-0.6295880402745312,0,0,0,1
1.126277425337341,-1.00893398423171,-0.8204549802745311,0,0,0,1
1.126277425337341,-1.00893398423171,-0.8204549802745311,0,0,0,1
-0.2718882446626591,-0.2203908642317099,-0.08737615027453123,0,0,0,1
-1.894491674662659,1.21966041576829,0.48724158972546877,0,0,0,1
-2.033563074662659,1.3629097157682901,0.5699438197254688,0,0,0,1
-0.024495584662659105,0.7039794157682902,0.34132089972546875,0,0,0,1
1.507472525337341,-0.8300892842317098,-0.12999716527453123,0,0,0,1
2.126731425337341,-1.32794818423171,-0.4554818002745312,0,0,0,1
2.1930727253373408,-0.9800743842317099,-0.6344921802745311,0,0,0,1
2.1930727253373408,-0.9800743842317099,-0.6344921802745311,0,0,0,1
1.724401025337341,0.16710712576829012,-0.7720400402745312,0,0,0,1
-2.007273674662659,1.02579991576829,0.041282383725468774,0,0,0,1
-2.007273674662659,1.02579991576829,0.041282383725468774,0,0,0,1
-3.023703574662659,0.20223601576829012,0.3056434697254688,0,0,0,1
-3.023703574662659,0.20223601576829012,0.3056434697254688,0,0,0,1
1.035221625337341,-0.36564074423170984,0.3162910597254688,0,0,0,1
1.035221625337341,-0.36564074423170984,0.3162910597254688,0,0,0,1
2.9743027253373406,0.06596319576829013,0.09072121972546877,0,0,0,1
3.1033282253373407,0.29533426576829014,-0.6171050402745312,0,0,0,1
3.1033282253373407,0.29533426576829014,-0.6171050402745312,0,0,0,1
2.244921225337341,0.1847935757682901,-0.8360955802745311,0,0,0,1
-2.027706574662659,-0.33005006423170985,-0.8163029302745312,0,0,0,1
-3.556041674662659,0.5270066157682901,-0.03429106027453122,0,0,0,1
0.41428805533734087,0.6002050857682901,1.2291892197254688,0,0,0,1
0.41428805533734087,0.6002050857682901,1.2291892197254688,0,0,0,1
0.41428805533734087,0.6002050857682901,1.2291892197254688,0,0,0,1
1.863680425337341,-0.25795601423170983,0.25118299972546876,0,0,0,1
2.320119425337341,-1.08498818423171,-0.17398301027453122,0,0,0,1
2.320119425337341,-1.08498818423171,-0.17398301027453122,0,0,0,1
-2.222718674662659,1.11206971576829,-0.08560339027453123,0,0,0,1
-2.222718674662659,1.11206971576829,-0.08560339027453123,0,0,0,1
-2.222718674662659,1.11206971576829,-0.08560339027453123,0,0,0,1
-0.2093291146626591,0.12092492576829013,0.09604331972546877,0,0,0,1
1.148204325337341,-0.39922390423170984,-0.2848674402745312,0,0,0,1
1.667641225337341,-0.5691776842317099,-0.29512873027453124,0,0,0,1
1.716260425337341,-0.38353614423170984,0.0037221597254687754,0,0,0,1
-1.256731474662659,-0.7281047842317099,0.10754200972546878,0,0,0,1
-1.823507274662659,-1.12376008423171,0.4981920197254687,0,0,0,1
-1.554494374662659,-0.6734370842317099,0.8675455697254688,0,0,0,1
-1.554494374662659,-0.6734370842317099,0.8675455697254688,0,0,0,1
-1.554494374662659,-0.6734370842317099,0.8675455697254688,0,0,0,1
2.4626403253373406,0.5906254157682902,0.032615034725468776,0,0,0,1
2.4626403253373406,0.5906254157682902,0.032615034725468776,0,0,0,1
1.775688625337341,-0.6822589842317098,-0.6791631302745311,0,0,0,1
-0.4459452446626591,-0.8208865842317099,-1.234614380274531,0,0,0,1
-1.914582274662659,-0.03005562423170987,-1.0705407802745313,0,0,0,1
-1.854083974662659,0.7599058157682902,-0.13859490027453122,0,0,0,1
-1.264471474662659,1.16541121576829,0.4702372197254688,0,0,0,1
-0.3807930746626591,0.7378138457682901,0.38993337972546877,0,0,0,1
0.9767718253373409,-0.8925746542317099,0.4285876997254688,0,0,0,1
2.021087225337341,-1.87412878423171,0.45479884972546875,0,0,0,1
1.904152425337341,-1.3321722842317099,0.5143388797254689,0,0,0,1
0.7210583853373409,0.06748500576829013,0.8253640797254689,0,0,0,1
0.7210583853373409,0.06748500576829013,0.8253640797254689,0,0,0,1
-0.7106213446626591,0.6879231557682901,0.7713643197254688,0,0,0,1
-1.654397474662659,0.10726085576829013,0.24014606972546876,0,0,0,1
-0.6629442746626591,-0.1809017142317099,-0.10097793027453122,0,0,0,1
0.7052855653373409,0.025481838768290126,-0.12553015527453124,0,0,0,1
0.9729943253373409,-0.1348033942317099,0.14393898972546876,0,0,0,1
0.9729943253373409,-0.1348033942317099,0.14393898972546876,0,0,0,1
0.7169871253373409,0.6104029557682902,0.5031891797254688,0,0,0,1
0.5789303953373409,0.9347200157682901,0.7143605597254689,0,0,0,1
0.09335090533734089,0.6060135557682902,0.5728038797254689,0,0,0,1
-0.9683289346626591,-1.2010361842317099,0.35479243972546876,0,0,0,1
-0.9683289346626591,-1.2010361842317099,0.35479243972546876,0,0,0,1
-1.036350674662659,-1.09992178423171,0.43574174972546875,0,0,0,1
-1.036350674662659,-1.09992178423171,0.43574174972546875,0,0,0,1
0.8662772253373409,0.6847802157682902,0.3643125597254688,0,0,0,1
1.942739025337341,0.6396369557682902,-0.07488492027453122,0,0,0,1
1.905197625337341,0.5122480557682901,-0.4773043802745312,0,0,0,1
0.7558589253373409,-0.18014098423170988,-0.5754291102745311,0,0,0,1
-0.20887516466265912,-0.45559718423170986,-0.5840794202745312,0,0,0,1
-0.48122833466265913,-0.23144681423170987,-0.045188340274531225,0,0,0,1
-0.4036555146626591,0.01576681776829013,0.35735561972546875,0,0,0,1
-0.4036555146626591,0.01576681776829013,0.35735561972546875,0,0,0,1
-0.6050410146626591,0.1843619157682901,0.5638654197254688,0,0,0,1
-0.6800055346626591,0.30120463576829015,1.0888304197254688,0,0,0,1
0.4941592253373409,-0.08623490923170987,0.3941628597254688,0,0,0,1
0.4941592253373409,-0.08623490923170987,0.3941628597254688,0,0,0,1
0.7562995253373409,-0.8052801342317099,-0.41722658027453124,0,0,0,1
0.7573409253373409,-1.23301958423171,-0.8010715802745312,0,0,0,1
0.3249240053373409,-1.10720768423171,-0.8522184202745312,0,0,0,1
0.3249240053373409,-1.10720768423171,-0.8522184202745312,0,0,0,1
-0.5681834046626592,1.18626991576829,0.25273665972546877,0,0,0,1
0.5370946253373409,0.9189420157682902,0.5863390897254688,0,0,0,1
0.5370946253373409,0.9189420157682902,0.5863390897254688,0,0,0,1
0.6187720253373409,-1.08883698423171,-0.42678473027453123,0,0,0,1
0.6187720253373409,-1.08883698423171,-0.42678473027453123,0,0,0,1
-0.3669609746626591,-0.35776196423170986,0.09111931972546877,0,0,0,1
-1.616383074662659,0.5801621857682902,0.6542131597254688,0,0,0,1
-0.11190460466265911,0.25839717576829013,0.14257886972546877,0,0,0,1
1.973636125337341,-0.6024673842317099,-0.44396076027453124,0,0,0,1
2.3635812253373407,-0.7992629842317098,-0.27835462027453123,0,0,0,1
-0.7101826746626592,-0.7327327842317098,0.37096848972546875,0,0,0,1
-1.857029374662659,0.1500118957682901,0.6335807697254688,0,0,0,1
-1.857029374662659,0.1500118957682901,0.6335807697254688,0,0,0,1
-1.121947774662659,0.26254816576829015,0.5143610497254688,0,0,0,1
-1.121947774662659,0.26254816576829015,0.5143610497254688,0,0,0,1
0.07232715533734088,0.16146153576829012,-0.29556766027453124,0,0,0,1
0.07232715533734088,0.16146153576829012,-0.29556766027453124,0,0,0,1
0.4589781953373409,0.43240787576829015,-0.3820360002745312,0,0,0,1
1.457359825337341,0.39907201576829016,-0.17716167027453122,0,0,0,1
1.291690325337341,0.29465507576829014,-0.3768653602745312,0,0,0,1
-0.7050995746626592,-0.02359284123170987,-1.023614880274531,0,0,0,1
-0.7050995746626592,-0.02359284123170987,-1.023614880274531,0,0,0,1
-3.3735875746626593,1.27497361576829,0.9006441497254688,0,0,0,1
-2.2731837746626593,2.1680269157682903,1.3224649197254688,0,0,0,1
0.9855265753373409,-1.54000698423171,-0.7014087802745311,0,0,0,1
3.750936025337341,-3.30770898423171,-1.0006863802745312,0,0,0,1
3.750936025337341,-3.30770898423171,-1.0006863802745312,0,0,0,1
3.4671035253373406,-3.80496098423171,-1.059402680274531,0,0,0,1
0.7582450253373408,-1.95250118423171,-0.6605735802745312,0,0,0,1
-1.590004474662659,-0.1422160342317099,1.1473309197254689,0,0,0,1
-1.590004474662659,-0.1422160342317099,1.1473309197254689,0,0,0,1
-2.333889474662659,0.48103337576829014,0.43178214972546874,0,0,0,1
-0.050082667662659106,1.81571401576829,-0.8866589802745312,0,0,0,1
-0.050065501662659107,1.80717711576829,-0.8821038302745312,0,0,0,1
3.0988965253373406,3.5183916157682904,1.360032719725469,0,0,0,1
2.4448867253373407,3.6720709157682903,1.4291466197254687,0,0,0,1
1.562284925337341,1.86104921576829,1.2995364197254688,0,0,0,1
1.715997225337341,-1.71323328423171,0.22047981972546876,0,0,0,1
1.058638125337341,-4.59460068423171,-0.16358844027453123,0,0,0,1
-1.799252974662659,-3.70352078423171,0.15624441972546876,0,0,0,1
-3.799418474662659,-1.39692088423171,1.3336668197254689,0,0,0,1
1.437462325337341,0.9571726457682902,2.7283723197254686,0,0,0,1
1.437462325337341,0.9571726457682902,2.7283723197254686,0,0,0,1
3.9718461253373407,0.07965971576829013,0.6025782497254688,0,0,0,1
5.10268472533734,-1.01937348423171,-1.5257279802745312,0,0,0,1
5.10268472533734,-1.01937348423171,-1.5257279802745312,0,0,0,1
5.760342125337341,-1.87573348423171,-2.6855480802745313,0,0,0,1
1.192973625337341,-0.5309759842317099,-3.2583041802745316,0,0,0,1
-7.38803227466266,6.3888519157682895,4.840266919725469,0,0,0,1
-7.38803227466266,6.3888519157682895,4.840266919725469,0,0,0,1
-7.38803227466266,6.3888519157682895,4.840266919725469,0,0,0,1
-4.200190974662659,5.90555331576829,5.935319619725469,0,0,0,1
-0.3594670146626591,2.6323962157682903,3.1842315197254685,0,0,0,1
