acc_x,acc_y,acc_z,gyro_x,gyro_y,gyro_z,label
2.014314225337341,-0.09149472423170987,-0.020018728274531224,0,0,0,1
0.49228049533734086,0.7447644157682901,-0.24205878027453123,0,0,0,1
-0.3842291746626591,-0.2024007442317099,-0.034147770274531225,0,0,0,1
-1.127946374662659,0.6260351757682902,-0.21265498027453122,0,0,0,1
1.025539925337341,0.5490185157682902,-0.10226861027453123,0,0,0,1
2.414566525337341,0.2557308857682901,-0.30914846027453124,0,0,0,1
1.121590125337341,0.08237162576829013,-0.3451812602745312,0,0,0,1
-0.7726387746626591,-0.5461980542317099,-0.001515181274531225,0,0,0,1
-1.115473274662659,0.27270449576829014,0.18004258972546877,0,0,0,1
0.6848244853373409,0.8371252557682901,0.15584226972546877,0,0,0,1
2.3664660253373406,-0.43094615423170984,0.03619703472546878,0,0,0,1
2.3664660253373406,-0.43094615423170984,0.03619703472546878,0,0,0,1
0.09068156533734088,-0.6805027842317098,-0.5224522802745312,0,0,0,1
0.09068156533734088,-0.6805027842317098,-0.5224522802745312,0,0,0,1
-0.6998066746626591,-0.07900201923170987,-0.18286780027453123,0,0,0,1
-0.9307961346626591,0.2321737557682901,0.28233333972546876,0,0,0,1
-0.7455439446626592,0.1597699157682901,0.17362101972546878,0,0,0,1
1.208719725337341,-0.05479316023170987,-0.06765213727453123,0,0,0,1
1.208719725337341,-0.05479316023170987,-0.06765213727453123,0,0,0,1
2.254731725337341,-0.31326584423170983,-0.32480195027453124,0,0,0,1
1.056749825337341,0.15253295576829012,-0.5237118302745312,0,0,0,1
-0.8368010346626591,0.5753407157682902,-0.21936002027453122,0,0,0,1
-1.171747674662659,0.14761886576829011,0.18481930972546878,0,0,0,1
-1.171747674662659,0.14761886576829011,0.18481930972546878,0,0,0,1
-1.171747674662659,0.14761886576829011,0.18481930972546878,0,0,0,1
1.972099825337341,-0.7959268842317099,-0.14672271027453124,0,0,0,1
0.6442885553373409,-0.5108330842317098,-0.21008900027453123,0,0,0,1
-1.198935974662659,0.016087416268290126,0.16601928972546878,0,0,0,1
-1.583102674662659,0.5206698157682902,0.38401445972546877,0,0,0,1
-0.7902045046626591,0.6853173557682901,0.3751974997254688,0,0,0,1
0.3742451853373409,0.20399308576829012,-0.4756635802745312,0,0,0,1
2.443368425337341,-0.6731378242317099,-0.7844412802745312,0,0,0,1
0.9352650753373409,0.24705071576829013,-0.4241660002745312,0,0,0,1
-1.302176974662659,0.9938774157682901,-0.2941724402745312,0,0,0,1
-1.302176974662659,0.9938774157682901,-0.2941724402745312,0,0,0,1
-1.124388174662659,-0.2340280542317099,0.20853289972546876,0,0,0,1
-0.3723740446626591,-0.4988869242317099,-0.17545429027453122,0,0,0,1
-0.3723740446626591,-0.4988869242317099,-0.17545429027453122,0,0,0,1
0.042657391337340894,-0.7102123342317098,-0.13939920027453123,0,0,0,1
0.7584634253373409,-0.40081523423170984,0.5911088197254688,0,0,0,1
0.7584634253373409,-0.40081523423170984,0.5911088197254688,0,0,0,1
-0.11905716466265912,1.34357311576829,0.8003232197254688,0,0,0,1
0.6727290253373409,0.9289077657682902,0.6768207197254689,0,0,0,1
-0.025327189662659105,0.8632127857682902,-0.44204250027453124,0,0,0,1
1.240585825337341,-0.8278125342317099,-1.0269564802745312,0,0,0,1
1.240585825337341,-0.8278125342317099,-1.0269564802745312,0,0,0,1
1.698001425337341,-1.57973888423171,-1.2622288802745312,0,0,0,1
-0.3107018346626591,-0.39705998423170985,-1.2935702802745312,0,0,0,1
-1.880825474662659,1.42098201576829,0.04366597372546878,0,0,0,1
-1.880825474662659,1.42098201576829,0.04366597372546878,0,0,0,1
-1.638923174662659,-2.4037088842317096,0.3659340397254688,0,0,0,1
-1.638923174662659,-2.4037088842317096,0.3659340397254688,0,0,0,1
0.5411982653373408,-2.6489438842317097,0.7424935197254688,0,0,0,1
4.245271225337341,1.6736010157682901,2.0584387197254688,0,0,0,1
1.330621225337341,2.1121699157682903,-1.7375241802745311,0,0,0,1
-0.4587616746626591,-1.2662959842317099,-2.007196780274531,0,0,0,1
-0.4587616746626591,-1.2662959842317099,-2.007196780274531,0,0,0,1
-6.860720574662659,-1.78772108423171,-1.6391010802745312,0,0,0,1
-3.486284674662659,-0.41545395423170983,1.6646908197254688,0,0,0,1
-3.486284674662659,-0.41545395423170983,1.6646908197254688,0,0,0,1
3.6352525253373407,2.50474931576829,3.064511019725469,0,0,0,1
3.6352525253373407,2.50474931576829,3.064511019725469,0,0,0,1
5.840019725337341,-0.21272952423170988,-0.20112530027453124,0,0,0,1
-5.857223974662659,2.4127049157682903,0.8290115897254688,0,0,0,1
-5.857223974662659,2.4127049157682903,0.8290115897254688,0,0,0,1
-5.343853974662659,3.8173232157682904,2.6828701197254685,0,0,0,1
-2.633907274662659,1.98386511576829,3.2292168197254685,0,0,0,1
-0.04889057466265911,-1.29773758423171,3.2729943197254685,0,0,0,1
2.6499410253373408,-3.13794638423171,1.504471019725469,0,0,0,1
4.455347725337341,-3.3325979842317097,1.1133813197254687,0,0,0,1
4.6946912253373405,-1.2451288842317099,-0.6176104802745311,0,0,0,1
4.6946912253373405,-1.2451288842317099,-0.6176104802745311,0,0,0,1
3.300999225337341,1.01238781576829,-1.3790315802745312,0,0,0,1
1.729342025337341,2.1267841157682903,-2.6710457802745315,0,0,0,1
-0.1540474746626591,0.9341956557682901,-2.6048600802745314,0,0,0,1
-5.66442127466266,0.42337818576829017,-1.276474380274531,0,0,0,1
-5.66442127466266,0.42337818576829017,-1.276474380274531,0,0,0,1
-5.66442127466266,0.42337818576829017,-1.276474380274531,0,0,0,1
-0.9800505746626591,0.3069060357682901,1.7924644197254689,0,0,0,1
0.6130986253373409,1.01330721576829,3.3419103197254687,0,0,0,1
0.6130986253373409,1.01330721576829,3.3419103197254687,0,0,0,1
1.661525225337341,0.09530911176829013,1.5579213197254689,0,0,0,1
3.6128717253373406,-3.33410448423171,0.9141710697254688,0,0,0,1
3.9672294253373406,-3.90877028423171,-1.3122341802745312,0,0,0,1
1.692859225337341,-1.24441718423171,-1.035593980274531,0,0,0,1
-0.005647166362659105,2.4424353157682903,-1.3419389802745312,0,0,0,1
-0.4015345446626591,3.49289471576829,-1.1550403802745313,0,0,0,1
-3.976365074662659,1.03462331576829,-0.6326391802745311,0,0,0,1
-3.9785918746626594,1.02091941576829,-0.6458751302745311,0,0,0,1
-3.008958774662659,-0.33258075423170985,0.032805053725468776,0,0,0,1
0.5906605853373409,-0.9292852842317099,1.255757519725469,0,0,0,1
0.5906605853373409,-0.9292852842317099,1.255757519725469,0,0,0,1
2.783589825337341,1.10967931576829,1.3835030197254687,0,0,0,1
2.783589825337341,1.10967931576829,1.3835030197254687,0,0,0,1
-0.025637134662659104,-0.7915385842317099,-0.5784868302745312,0,0,0,1
-3.5920757746626593,0.08594216576829013,-0.9532114802745312,0,0,0,1
-3.986967074662659,-0.07371766423170988,-0.46798065027453123,0,0,0,1
-3.986967074662659,-0.07371766423170988,-0.46798065027453123,0,0,0,1
-1.659534874662659,-0.08608351423170987,0.8118418197254689,0,0,0,1
1.768185125337341,0.9551078157682902,0.25372453972546877,0,0,0,1
3.0816379253373407,-0.7197608142317099,0.6968406697254689,0,0,0,1
-1.836163474662659,0.0037881915682901283,-0.3783903402745312,0,0,0,1
-2.1476831746626592,1.39294601576829,-0.24994865027453123,0,0,0,1
-2.1476831746626592,1.39294601576829,-0.24994865027453123,0,0,0,1
-0.9579176746626591,1.5617092157682901,-0.48782984027453125,0,0,0,1
0.8907962253373409,1.18306581576829,-0.8584563802745312,0,0,0,1
2.096956725337341,0.16910036576829013,-0.5085411402745311,0,0,0,1
1.013808725337341,2.8107708157682905,0.39428445972546877,0,0,0,1
1.013808725337341,2.8107708157682905,0.39428445972546877,0,0,0,1
-0.4901633146626591,4.57302691576829,0.37796291972546875,0,0,0,1
-0.4901633146626591,4.57302691576829,0.37796291972546875,0,0,0,1
-1.512574674662659,3.0889730157682904,1.057767719725469,0,0,0,1
-2.182534674662659,-0.9125103842317098,-0.4047674302745312,0,0,0,1
-0.019979937662659104,-5.26951168423171,-1.9872267802745311,0,0,0,1
1.865684025337341,-4.84073878423171,-1.6563450802745312,0,0,0,1
2.1762175253373406,-2.98823278423171,0.7523182197254689,0,0,0,1
0.8551440253373409,0.40121661576829015,2.2490110197254687,0,0,0,1
0.13015033533734088,2.30210921576829,3.8359796197254687,0,0,0,1
1.129239525337341,0.7393330557682901,-0.09187880027453123,0,0,0,1
1.130246625337341,0.7504988457682902,-0.08767548027453123,0,0,0,1
1.124686725337341,-0.7416519842317099,-1.535958280274531,0,0,0,1
0.053323285337340896,-1.5931378842317099,-2.5227048802745315,0,0,0,1
-2.697275574662659,-0.9249274842317099,-1.1396284802745311,0,0,0,1
-1.841582774662659,-0.46319310423170984,0.3850145597254688,0,0,0,1
-0.2655930346626591,0.9755561557682901,1.9066390197254688,0,0,0,1
1.534722825337341,2.4014220157682904,1.7872458197254688,0,0,0,1
3.6609750253373408,2.7186911157682903,2.5806143197254685,0,0,0,1
4.341878425337341,2.7289007157682903,1.5153863197254689,0,0,0,1
3.117947125337341,2.2370355157682904,-1.2765749802745312,0,0,0,1
0.39752627533734086,-0.2390467642317099,-3.1564278802745314,0,0,0,1
-2.5423688746626594,-2.71855968423171,-3.1195013802745315,0,0,0,1
-5.626666274662659,-1.07226448423171,-0.5873171402745312,0,0,0,1
-1.325206274662659,1.04321681576829,1.6158272197254688,0,0,0,1
-1.325206274662659,1.04321681576829,1.6158272197254688,0,0,0,1
2.865575325337341,1.87927011576829,3.2920473197254685,0,0,0,1
2.5626140253373406,1.17518881576829,2.4057710197254685,0,0,0,1
2.5626140253373406,1.17518881576829,2.4057710197254685,0,0,0,1
1.589975825337341,0.33783661576829016,1.2850105197254689,0,0,0,1
3.7780527253373406,-1.59795838423171,-0.46800521027453124,0,0,0,1
1.155664025337341,-0.7745967842317099,-2.4951059802745315,0,0,0,1
1.155664025337341,-0.7745967842317099,-2.4951059802745315,0,0,0,1
-3.020834474662659,0.6758087157682902,-2.8628499802745315,0,0,0,1
1.155664025337341,-0.7745967842317099,-2.4951059802745315,0,0,0,1
-3.020834474662659,0.6758087157682902,-2.8628499802745315,0,0,0,1
-3.4374484746626592,0.1286449957682901,-2.181035280274531,0,0,0,1
-3.692965974662659,-1.42411918423171,1.5705220197254688,0,0,0,1
-3.692965974662659,-1.42411918423171,1.5705220197254688,0,0,0,1
-1.356304674662659,-0.33071090423170985,3.4422933197254686,0,0,0,1
3.4237877253373408,0.9640246857682901,3.5592038197254685,0,0,0,1
5.3687053253373405,2.36212061576829,3.2630951197254685,0,0,0,1
3.212977925337341,3.55429601576829,-0.8046939802745312,0,0,0,1
0.07985641533734089,-1.8430549842317099,-9.02196068027453,0,0,0,1
0.07985641533734089,-1.8430549842317099,-9.02196068027453,0,0,0,1
-1.930490974662659,-2.9265534842317096,-5.021064680274532,0,0,0,1
-5.9806122746626595,1.75770221576829,2.1568191197254687,0,0,0,1
-5.9806122746626595,1.75770221576829,2.1568191197254687,0,0,0,1
3.709999625337341,-2.80652588423171,-0.6054303802745312,0,0,0,1
0.5506463253373409,-1.89293768423171,-3.3648574802745315,0,0,0,1
0.5506463253373409,-1.89293768423171,-3.3648574802745315,0,0,0,1
0.5506463253373409,-1.89293768423171,-3.3648574802745315,0,0,0,1
-5.711302774662659,5.14917521576829,-0.5553292302745312,0,0,0,1
-5.711302774662659,5.14917521576829,-0.5553292302745312,0,0,0,1
-2.4421848746626593,3.52904321576829,1.415392219725469,0,0,0,1
0.029913441337340897,-1.33651108423171,1.5534260197254688,0,0,0,1
1.965794125337341,-3.2914292842317097,0.41928621972546876,0,0,0,1
5.824059025337341,-1.97615908423171,0.2553851197254688,0,0,0,1
0.9924817253373409,0.40248589576829014,-0.6128812102745311,0,0,0,1
0.9924817253373409,0.40248589576829014,-0.6128812102745311,0,0,0,1
-3.6999001746626594,1.15996901576829,-0.10249653627453123,0,0,0,1
-4.425234774662659,0.5742856157682902,0.6234848197254689,0,0,0,1
-4.425234774662659,0.5742856157682902,0.6234848197254689,0,0,0,1
-4.425234774662659,0.5742856157682902,0.6234848197254689,0,0,0,1
-0.2913327046626591,2.64502451576829,1.249784919725469,0,0,0,1
3.9395718253373406,0.6119458157682901,1.214048919725469,0,0,0,1
5.901806325337341,0.05920876876829013,-0.3972400802745312,0,0,0,1
5.901806325337341,0.05920876876829013,-0.3972400802745312,0,0,0,1
3.856779625337341,-3.43398208423171,-2.0788364802745316,0,0,0,1
1.580508725337341,-2.7971715842317098,-2.4028408802745314,0,0,0,1
-1.663281874662659,0.16949284576829013,0.4551952197254688,0,0,0,1
-1.663281874662659,0.16949284576829013,0.4551952197254688,0,0,0,1
-4.95318887466266,3.5989292157682904,1.6257066197254688,0,0,0,1
-4.95318887466266,3.5989292157682904,1.6257066197254688,0,0,0,1
-2.1477202746626594,-0.7595569842317098,1.1141338197254689,0,0,0,1
-2.1477202746626594,-0.7595569842317098,1.1141338197254689,0,0,0,1
4.050523325337341,-3.8422502842317097,-1.0060521802745312,0,0,0,1
4.050523325337341,-3.8422502842317097,-1.0060521802745312,0,0,0,1
6.351694725337341,-3.2424148842317098,-0.8726375402745312,0,0,0,1
5.9016051253373405,-0.9696570842317098,-1.274460680274531,0,0,0,1
0.5544038253373409,-0.2045187142317099,-2.8389084802745312,0,0,0,1
0.5544038253373409,-0.2045187142317099,-2.8389084802745312,0,0,0,1
-2.353099774662659,-0.7058859842317099,-0.18480256027453124,0,0,0,1
-7.091034274662659,2.84087321576829,1.439847419725469,0,0,0,1
-7.091034274662659,2.84087321576829,1.439847419725469,0,0,0,1
-0.1469483246626591,2.7913051157682904,1.7651438197254687,0,0,0,1
3.291801925337341,0.9179296157682901,0.45783605972546876,0,0,0,1
3.291801925337341,0.9179296157682901,0.45783605972546876,0,0,0,1
6.229404025337341,-2.3459553842317096,-1.194103680274531,0,0,0,1
6.229404025337341,-2.3459553842317096,-1.194103680274531,0,0,0,1
5.8922391253373405,-3.9552423842317097,-2.4076464802745314,0,0,0,1
5.8922391253373405,-3.9552423842317097,-2.4076464802745314,0,0,0,1
-1.158606974662659,-0.03939629723170987,-2.2451961802745313,0,0,0,1
