acc_x,acc_y,acc_z,gyro_x,gyro_y,gyro_z,label
-3.2269119746626593,0.5898047157682902,-0.9460317202745312,0,0,0,1
-3.2269119746626593,0.5898047157682902,-0.9460317202745312,0,0,0,1
-2.623550874662659,1.31116401576829,-0.49147835027453124,0,0,0,1
0.2599740253373409,0.6523278157682901,0.3322497197254688,0,0,0,1
2.9380107253373406,-0.08968709423170987,-0.3626503102745312,0,0,0,1
3.0830064253373406,-0.5852782842317099,-0.46572140027453124,0,0,0,1
2.365067925337341,-0.37821994423170985,-0.20868436027453122,0,0,0,1
2.365067925337341,-0.37821994423170985,-0.20868436027453122,0,0,0,1
-2.2796177746626594,-0.25066528423170986,0.46442011972546876,0,0,0,1
-2.2796177746626594,-0.25066528423170986,0.46442011972546876,0,0,0,1
-3.501480574662659,0.3297278457682901,0.8429634897254689,0,0,0,1
-2.593341774662659,0.6934507157682901,0.7625812197254688,0,0,0,1
-0.2732758346626591,0.9612125157682901,-0.20040336027453123,0,0,0,1
2.3483071253373407,0.5712373157682902,-1.5551381802745312,0,0,0,1
3.7420182253373406,0.13651119576829013,-1.138870880274531,0,0,0,1
0.9516625553373409,0.4917710357682901,-1.605631480274531,0,0,0,1
-0.9928469746626591,-0.14194012423170987,-1.0623611802745312,0,0,0,1
-0.9928469746626591,-0.14194012423170987,-1.0623611802745312,0,0,0,1
-2.426681074662659,-0.35795254423170986,0.10355260972546877,0,0,0,1
-2.426681074662659,-0.35795254423170986,0.10355260972546877,0,0,0,1
-1.015269774662659,0.4024718857682901,1.3588824197254687,0,0,0,1
0.7249512853373409,0.48120259576829016,1.0780892197254688,0,0,0,1
0.7249512853373409,0.48120259576829016,1.0780892197254688,0,0,0,1
1.603757425337341,0.08567767176829014,0.21968491972546877,0,0,0,1
-0.1532835746626591,-1.2290467842317099,-0.9560761802745312,0,0,0,1
-0.1532835746626591,-1.2290467842317099,-0.9560761802745312,0,0,0,1
-1.489449974662659,0.022071750768290127,-0.8119600102745311,0,0,0,1
-1.864452774662659,0.6571688157682901,-0.9619816802745311,0,0,0,1
-1.864452774662659,0.6571688157682901,-0.9619816802745311,0,0,0,1
-1.864452774662659,0.6571688157682901,-0.9619816802745311,0,0,0,1
0.8856148853373409,-0.5701746142317099,-0.4594705402745312,0,0,0,1
0.8856148853373409,-0.5701746142317099,-0.4594705402745312,0,0,0,1
-1.069301074662659,-0.8399346242317098,0.13135888972546877,0,0,0,1
-1.069301074662659,-0.8399346242317098,0.13135888972546877,0,0,0,1
-1.069301074662659,-0.8399346242317098,0.13135888972546877,0,0,0,1
-1.002653574662659,1.95532011576829,0.28514834972546876,0,0,0,1
-1.002653574662659,1.95532011576829,0.28514834972546876,0,0,0,1
0.038219945337340896,1.92290331576829,0.13896408972546878,0,0,0,1
1.578860725337341,-1.14241428423171,-1.2271288802745313,0,0,0,1
0.18811942533734088,-1.74896998423171,-1.1385762802745312,0,0,0,1
0.18811942533734088,-1.74896998423171,-1.1385762802745312,0,0,0,1
0.18811942533734088,-1.74896998423171,-1.1385762802745312,0,0,0,1
-0.8766178746626591,-1.0648233842317099,-0.4555507002745312,0,0,0,1
-1.662273874662659,0.5619365157682902,0.7017565197254688,0,0,0,1
-1.662273874662659,0.5619365157682902,0.7017565197254688,0,0,0,1
-2.336334274662659,1.56337421576829,0.8064700697254689,0,0,0,1
-2.336334274662659,1.56337421576829,0.8064700697254689,0,0,0,1
1.425826525337341,-1.75912728423171,-0.3419593802745312,0,0,0,1
0.9546475553373409,-1.1293644842317099,-1.1951953802745312,0,0,0,1
0.9546475553373409,-1.1293644842317099,-1.1951953802745312,0,0,0,1
0.9546475553373409,-1.1293644842317099,-1.1951953802745312,0,0,0,1
1.176924225337341,-0.07609636023170988,-1.0944519802745312,0,0,0,1
-1.694149474662659,1.89061731576829,-0.5619342802745312,0,0,0,1
-1.694149474662659,1.89061731576829,-0.5619342802745312,0,0,0,1
-2.1206330746626594,1.04407911576829,0.010833351725468773,0,0,0,1
-0.3117594546626591,-0.7856998242317098,-0.08495322027453123,0,0,0,1
0.6082892553373409,-1.39139428423171,-0.42907420027453125,0,0,0,1
-0.09870861466265911,-0.9141572542317099,-0.6095091402745312,0,0,0,1
-0.2853264746626591,-0.5935861842317098,0.08391102972546877,0,0,0,1
0.1142258803373409,0.29323436576829015,0.5717593697254688,0,0,0,1
0.1142258803373409,0.29323436576829015,0.5717593697254688,0,0,0,1
0.1142258803373409,0.29323436576829015,0.5717593697254688,0,0,0,1
-0.5216889246626591,0.8627325457682902,0.4800835497254688,0,0,0,1
-0.5929159746626591,0.8104123657682901,-0.4350358602745312,0,0,0,1
0.5720010253373409,-1.0917695842317099,-0.8735370802745311,0,0,0,1
-0.4472126746626591,-1.63214618423171,-0.6671791402745312,0,0,0,1
-0.6155371746626591,-1.00430658423171,-0.6212141802745311,0,0,0,1
0.023776547337340897,0.2338525257682901,-0.17949048027453124,0,0,0,1
-0.3028578646626591,1.48057101576829,0.04162427672546878,0,0,0,1
-0.3028578646626591,1.48057101576829,0.04162427672546878,0,0,0,1
-0.013960345662659107,0.33911319576829013,-0.3290268502745312,0,0,0,1
-0.013960345662659107,0.33911319576829013,-0.3290268502745312,0,0,0,1
-0.2924227546626591,-0.2753856042317099,-0.4438538802745312,0,0,0,1
0.3726258453373409,-0.39737443423170987,-0.6169458802745311,0,0,0,1
0.6000189953373409,-0.35084415423170984,0.033064572725468776,0,0,0,1
-0.2124209246626591,0.46564175576829014,-0.32306305027453125,0,0,0,1
-0.9584698746626591,0.6082545657682902,0.18187149972546876,0,0,0,1
-0.5490345746626591,-0.42670748423170984,0.4824134397254688,0,0,0,1
-0.8740839746626591,-1.16493798423171,-0.0014391258745312255,0,0,0,1
-0.8740839746626591,-1.16493798423171,-0.0014391258745312255,0,0,0,1
0.6418585953373409,-0.9864424242317098,-0.4301035802745312,0,0,0,1
2.0050425253373407,-0.5504306342317099,-0.6607862802745311,0,0,0,1
0.8148865853373409,0.34352313576829013,-1.0276678802745312,0,0,0,1
0.8148865853373409,0.34352313576829013,-1.0276678802745312,0,0,0,1
-0.3694023946626591,1.37627601576829,0.48645129972546874,0,0,0,1
0.3083768053373409,1.17278341576829,-0.024332554274531227,0,0,0,1
1.178006625337341,-0.7699519242317099,-0.6228338802745311,0,0,0,1
0.9285578853373408,-2.2256488842317097,-0.9845922302745311,0,0,0,1
-1.280523774662659,-1.6544501842317099,-0.9495278802745312,0,0,0,1
-1.280523774662659,-1.6544501842317099,-0.9495278802745312,0,0,0,1
-2.7557124746626593,-0.37783066423170986,0.016336767725468774,0,0,0,1
-2.7557124746626593,-0.37783066423170986,0.016336767725468774,0,0,0,1
-1.862790574662659,0.7573710157682901,0.9820188597254689,0,0,0,1
2.092746225337341,1.49758101576829,-0.11875680027453123,0,0,0,1
2.092746225337341,1.49758101576829,-0.11875680027453123,0,0,0,1
2.1849360253373407,1.5448425157682901,-0.9067648802745312,0,0,0,1
-0.2603955146626591,0.9331444157682901,-0.6107996802745311,0,0,0,1
-0.2603955146626591,0.9331444157682901,-0.6107996802745311,0,0,0,1
-2.741614274662659,0.4091746157682901,0.28973158972546875,0,0,0,1
-2.741614274662659,0.4091746157682901,0.28973158972546875,0,0,0,1
2.4997363253373406,-1.26923858423171,-0.006663115374531225,0,0,0,1
2.4997363253373406,-1.26923858423171,-0.006663115374531225,0,0,0,1
2.6090350253373407,-1.49758668423171,0.5476197897254689,0,0,0,1
1.114539625337341,-1.3231671842317099,0.8959445597254688,0,0,0,1
-3.2456225746626592,-0.4254759342317099,0.5572328897254688,0,0,0,1
-3.2456225746626592,-0.4254759342317099,0.5572328897254688,0,0,0,1
-0.36513279466265913,-1.69136008423171,0.7544610197254689,0,0,0,1
-0.36513279466265913,-1.69136008423171,0.7544610197254689,0,0,0,1
-0.36513279466265913,-1.69136008423171,0.7544610197254689,0,0,0,1
1.604331525337341,-0.20401197423170989,0.6824093697254688,0,0,0,1
2.454707725337341,1.59148291576829,0.6748772497254688,0,0,0,1
2.454707725337341,1.59148291576829,0.6748772497254688,0,0,0,1
2.1373457253373407,2.8997693157682902,0.20755835972546877,0,0,0,1
-2.6305336746626593,-0.6586972242317098,-1.507806580274531,0,0,0,1
0.2219882153373409,-0.9869764242317098,-0.7242331802745312,0,0,0,1
0.2219882153373409,-0.9869764242317098,-0.7242331802745312,0,0,0,1
1.753745525337341,-0.6661680142317099,0.07429608572546877,0,0,0,1
1.753745525337341,-0.6661680142317099,0.07429608572546877,0,0,0,1
1.753745525337341,-0.6661680142317099,0.07429608572546877,0,0,0,1
2.012920825337341,0.23707643576829013,0.20906593972546877,0,0,0,1
1.228725925337341,0.5344148457682901,0.6116985197254688,0,0,0,1
-1.150506474662659,-1.3023160842317099,0.6860924197254689,0,0,0,1
0.8838210253373409,2.7201705157682903,0.7355822197254688,0,0,0,1
0.8838210253373409,2.7201705157682903,0.7355822197254688,0,0,0,1
0.8838210253373409,2.7201705157682903,0.7355822197254688,0,0,0,1
0.8838210253373409,2.7201705157682903,0.7355822197254688,0,0,0,1
1.332407525337341,2.99483161576829,0.34616198972546874,0,0,0,1
0.4575963253373409,1.71159201576829,-0.4624089302745312,0,0,0,1
0.4575963253373409,1.71159201576829,-0.4624089302745312,0,0,0,1
-1.614472874662659,-1.89027988423171,-0.36903456027453124,0,0,0,1
-1.979666274662659,0.03556046976829013,0.7351238197254688,0,0,0,1
-1.979666274662659,0.03556046976829013,0.7351238197254688,0,0,0,1
-1.979666274662659,0.03556046976829013,0.7351238197254688,0,0,0,1
-1.979666274662659,0.03556046976829013,0.7351238197254688,0,0,0,1
1.649821725337341,0.46351759576829016,1.2860188197254687,0,0,0,1
1.649821725337341,0.46351759576829016,1.2860188197254687,0,0,0,1
1.929375225337341,-0.9525392842317099,1.2919751197254687,0,0,0,1
1.341441625337341,-1.05462258423171,0.3271580597254688,0,0,0,1
0.8177352253373409,-0.6281118242317099,0.49514135972546874,0,0,0,1
-1.316349474662659,1.3573459157682901,0.029253569725468772,0,0,0,1
-1.316349474662659,1.3573459157682901,0.029253569725468772,0,0,0,1
-1.316349474662659,1.3573459157682901,0.029253569725468772,0,0,0,1
-0.2302231646626591,1.82551241576829,0.060947979725468775,0,0,0,1
1.196814125337341,-0.33230752423170984,0.038366166725468775,0,0,0,1
1.196814125337341,-0.33230752423170984,0.038366166725468775,0,0,0,1
1.404779925337341,-1.64123588423171,0.2723531997254688,0,0,0,1
1.404779925337341,-1.64123588423171,0.2723531997254688,0,0,0,1
-2.8612312746626594,0.17328991576829011,1.1362683197254688,0,0,0,1
-0.7200207746626591,1.15776301576829,1.5137619197254688,0,0,0,1
-0.7200207746626591,1.15776301576829,1.5137619197254688,0,0,0,1
-0.7200207746626591,1.15776301576829,1.5137619197254688,0,0,0,1
1.006864125337341,0.43632678576829015,0.6001150897254688,0,0,0,1
1.006864125337341,0.43632678576829015,0.6001150897254688,0,0,0,1
2.621064725337341,0.36133994576829015,-1.6827123802745312,0,0,0,1
2.621064725337341,0.36133994576829015,-1.6827123802745312,0,0,0,1
-2.982010274662659,0.4804351157682901,-0.8730694402745311,0,0,0,1
-2.982010274662659,0.4804351157682901,-0.8730694402745311,0,0,0,1
-2.982010274662659,0.4804351157682901,-0.8730694402745311,0,0,0,1
-4.492854274662659,0.7300020157682902,0.14733453972546878,0,0,0,1
-2.275855574662659,0.6457902157682901,1.4505273197254689,0,0,0,1
-0.3856539546626591,0.6417988157682901,1.680378719725469,0,0,0,1
-0.3856539546626591,0.6417988157682901,1.680378719725469,0,0,0,1
-0.3856539546626591,0.6417988157682901,1.680378719725469,0,0,0,1
3.3667531253373406,-1.36468638423171,0.47211471972546876,0,0,0,1
3.962301725337341,-2.56267328423171,-0.013472707574531225,0,0,0,1
1.267810325337341,-1.77824398423171,-0.15641454027453122,0,0,0,1
1.267810325337341,-1.77824398423171,-0.15641454027453122,0,0,0,1
-2.7279419746626594,-0.14896052423170988,-0.018487365274531226,0,0,0,1
-2.4280728746626594,2.63226961576829,1.4414718197254688,0,0,0,1
-0.5715660746626591,1.82047121576829,0.6713408497254688,0,0,0,1
-0.5715660746626591,1.82047121576829,0.6713408497254688,0,0,0,1
2.325686025337341,-1.90991628423171,-1.4320688802745312,0,0,0,1
3.958757925337341,-2.5803424842317098,-0.7486089802745312,0,0,0,1
2.0692344253373407,-1.10502668423171,-0.6862510802745312,0,0,0,1
2.0692344253373407,-1.10502668423171,-0.6862510802745312,0,0,0,1
-1.678679974662659,1.13340221576829,0.3381247797254688,0,0,0,1
-1.678679974662659,1.13340221576829,0.3381247797254688,0,0,0,1
-2.957661574662659,2.25234651576829,1.8111013197254688,0,0,0,1
-1.403132874662659,0.5058369857682902,0.8000145797254689,0,0,0,1
-1.403132874662659,0.5058369857682902,0.8000145797254689,0,0,0,1
2.0799184253373406,-2.0018088842317097,-1.1015916802745311,0,0,0,1
3.2808375253373407,-1.02672678423171,-0.041128190274531226,0,0,0,1
0.8420300653373409,0.6955926557682901,-0.4634376502745312,0,0,0,1
0.8420300653373409,0.6955926557682901,-0.4634376502745312,0,0,0,1
-1.415777674662659,2.0699980157682902,0.021915344725468775,0,0,0,1
-2.092170274662659,1.87957881576829,0.4783971897254688,0,0,0,1
-2.092170274662659,1.87957881576829,0.4783971897254688,0,0,0,1
-1.607746574662659,-1.27415138423171,0.30859651972546875,0,0,0,1
-0.009213908362659106,-1.33525708423171,0.30423011972546876,0,0,0,1
1.688994925337341,-0.5923069542317099,0.13078841972546876,0,0,0,1
1.500262725337341,0.38602169576829015,0.5141197197254688,0,0,0,1
1.500262725337341,0.38602169576829015,0.5141197197254688,0,0,0,1
1.500262725337341,0.38602169576829015,0.5141197197254688,0,0,0,1
1.500262725337341,0.38602169576829015,0.5141197197254688,0,0,0,1
1.500262725337341,0.38602169576829015,0.5141197197254688,0,0,0,1
-0.5594086746626591,-0.7832019142317098,-0.09714702027453123,0,0,0,1
1.198472525337341,-0.003200348731709871,0.12002798972546877,0,0,0,1
-1.655197574662659,0.10417165576829013,-0.0001555992745312252,0,0,0,1
-0.1273531746626591,0.04423185076829013,0.3632761797254688,0,0,0,1
-0.1273531746626591,0.04423185076829013,0.3632761797254688,0,0,0,1
1.484134225337341,0.47920791576829014,0.6469318597254688,0,0,0,1
-0.2095084046626591,-0.5459900342317099,-0.15460321027453122,0,0,0,1
-0.2095084046626591,-0.5459900342317099,-0.15460321027453122,0,0,0,1
-1.791361274662659,-0.25497613423170984,-0.16378781027453124,0,0,0,1
-1.992929874662659,-0.06944332423170987,-0.07818636427453123,0,0,0,1
-1.992929874662659,-0.06944332423170987,-0.07818636427453123,0,0,0,1
1.104785425337341,0.5195054557682901,-0.36286780027453125,0,0,0,1
0.5644908253373409,0.16393843576829012,-0.4684430102745312,0,0,0,1
0.5644908253373409,0.16393843576829012,-0.4684430102745312,0,0,0,1
-0.43316601466265914,-1.03542568423171,0.16117420972546878,0,0,0,1
-1.390584474662659,-0.7236057342317098,0.20909156972546877,0,0,0,1
-1.769257974662659,-0.10111447823170987,0.6990682197254688,0,0,0,1
-0.32147357466265913,0.32880954576829013,0.7421259197254688,0,0,0,1
1.217914125337341,-0.04154820423170987,1.0756173197254688,0,0,0,1
1.016527725337341,-0.2048773442317099,-0.08452716627453123,0,0,0,1
