acc_x,acc_y,acc_z,gyro_x,gyro_y,gyro_z,label
2.6082559253373407,1.46590231576829,0.23798742972546877,0,0,0,1
-1.638044774662659,-1.22403758423171,-0.09850606427453124,0,0,0,1
-2.9769152746626593,-0.44409672423170987,0.46179326972546875,0,0,0,1
-2.9769152746626593,-0.44409672423170987,0.46179326972546875,0,0,0,1
-3.100769474662659,0.8364922557682901,0.6467839197254688,0,0,0,1
2.683103125337341,0.39845211576829015,0.15450891972546876,0,0,0,1
2.683103125337341,0.39845211576829015,0.15450891972546876,0,0,0,1
1.500486825337341,0.03749622576829013,0.32171317972546876,0,0,0,1
-0.3319992746626591,0.2220072057682901,-0.025911362274531224,0,0,0,1
-1.764964074662659,0.33700411576829015,-0.22073242027453122,0,0,0,1
0.3360343253373409,0.20115612576829012,-0.4998879102745312,0,0,0,1
0.7904143253373409,0.46282241576829014,0.19394602972546876,0,0,0,1
0.7904143253373409,0.46282241576829014,0.19394602972546876,0,0,0,1
0.014774815337340895,0.6284674557682901,0.3557557697254688,0,0,0,1
0.014774815337340895,0.6284674557682901,0.3557557697254688,0,0,0,1
-0.24468181466265912,0.6957738557682901,1.458862019725469,0,0,0,1
0.5007624753373409,1.32299141576829,1.2105343197254688,0,0,0,1
-0.4362683146626591,0.42317301576829014,-0.24292037027453123,0,0,0,1
-0.4362683146626591,0.42317301576829014,-0.24292037027453123,0,0,0,1
-0.4362683146626591,0.42317301576829014,-0.24292037027453123,0,0,0,1
-1.732844774662659,0.43580027576829017,-0.5237854402745312,0,0,0,1
-1.256400574662659,0.5651098157682901,-0.35670051027453126,0,0,0,1
0.6173396253373409,0.12072940576829012,0.24235203972546876,0,0,0,1
1.911314525337341,0.36687197576829017,0.16466381972546876,0,0,0,1
1.623295325337341,1.1859691157682901,0.6143002797254689,0,0,0,1
-0.2588867946626591,0.6028045157682902,1.0947936197254688,0,0,0,1
-0.2588867946626591,0.6028045157682902,1.0947936197254688,0,0,0,1
1.623295325337341,1.1859691157682901,0.6143002797254689,0,0,0,1
-3.469379374662659,-0.8093559842317098,0.5106838597254688,0,0,0,1
-1.940798774662659,-1.3191747842317099,0.5304623497254688,0,0,0,1
1.801856525337341,1.24979731576829,0.35641331972546875,0,0,0,1
1.801856525337341,1.24979731576829,0.35641331972546875,0,0,0,1
1.801856525337341,1.24979731576829,0.35641331972546875,0,0,0,1
1.630217125337341,1.08835461576829,-0.5876795402745312,0,0,0,1
-1.097743474662659,0.26357017576829017,-0.43845526027453124,0,0,0,1
-1.097743474662659,0.26357017576829017,-0.43845526027453124,0,0,0,1
-2.093290774662659,0.33733891576829017,0.10667457972546877,0,0,0,1
-0.9528679746626592,0.6845219157682901,0.47080948972546877,0,0,0,1
0.5632567553373409,0.9953503757682901,0.47616198972546875,0,0,0,1
1.710162625337341,0.2870464757682901,0.8656213197254689,0,0,0,1
1.745721325337341,-0.6622568142317099,0.6242494197254689,0,0,0,1
0.18201591533734088,-1.05743218423171,1.212461919725469,0,0,0,1
-1.220180974662659,-0.3082573242317099,1.0440629197254687,0,0,0,1
-0.7343315746626591,0.9882890757682902,0.8032505197254688,0,0,0,1
1.523426525337341,1.35283401576829,-0.43655608027453124,0,0,0,1
1.408147325337341,0.28607164576829014,-0.8655846802745312,0,0,0,1
1.408147325337341,0.28607164576829014,-0.8655846802745312,0,0,0,1
0.4685416253373409,-0.9864734842317099,-0.7444495302745312,0,0,0,1
-1.119578774662659,-0.9136580842317099,-0.08221421027453123,0,0,0,1
-1.119578774662659,-0.9136580842317099,-0.08221421027453123,0,0,0,1
-1.422185374662659,1.36090931576829,0.6039583197254689,0,0,0,1
0.6209321253373409,0.8200376157682902,1.0158855197254688,0,0,0,1
0.6209321253373409,0.8200376157682902,1.0158855197254688,0,0,0,1
0.6209321253373409,0.8200376157682902,1.0158855197254688,0,0,0,1
1.507123525337341,0.0024506633082901287,0.9721224197254689,0,0,0,1
1.862926025337341,0.6298362757682902,0.006896106725468775,0,0,0,1
0.34411192533734086,0.8298756157682902,-0.04537591527453122,0,0,0,1
-1.170179874662659,0.7277919157682902,-0.5346394502745312,0,0,0,1
-1.170179874662659,0.7277919157682902,-0.5346394502745312,0,0,0,1
-1.553745774662659,-0.15595547423170988,-0.5322498802745311,0,0,0,1
-1.105801074662659,-0.022354972231709874,-0.13520995027453123,0,0,0,1
1.593399525337341,0.32421461576829014,0.8085620697254688,0,0,0,1
1.774414525337341,0.15894574576829013,1.3177707197254689,0,0,0,1
0.8284573753373409,0.32108919576829015,0.7186234197254688,0,0,0,1
-0.33952759466265914,-0.022274624231709873,-0.48655376027453123,0,0,0,1
1.083260125337341,-0.42658696423170983,-0.14442668027453123,0,0,0,1
1.083260125337341,-0.42658696423170983,-0.14442668027453123,0,0,0,1
-0.9624733746626591,-0.2155989842317099,0.6806540197254688,0,0,0,1
-1.497568574662659,0.5652925157682901,1.2158856197254688,0,0,0,1
-0.5173048746626591,1.11449531576829,0.8434200197254689,0,0,0,1
1.439099825337341,0.8703012657682901,0.7636637197254689,0,0,0,1
1.439099825337341,0.8703012657682901,0.7636637197254689,0,0,0,1
1.439099825337341,0.8703012657682901,0.7636637197254689,0,0,0,1
1.868841625337341,0.08057450076829013,-0.15663675027453122,0,0,0,1
-0.40689800466265913,-0.3157842242317099,-0.4094693802745312,0,0,0,1
-0.40689800466265913,-0.3157842242317099,-0.4094693802745312,0,0,0,1
-0.40689800466265913,-0.3157842242317099,-0.4094693802745312,0,0,0,1
-1.463437574662659,0.5317707157682902,0.07586678972546877,0,0,0,1
-1.463437574662659,0.5317707157682902,0.07586678972546877,0,0,0,1
1.032062025337341,-1.1668616842317099,0.6964705897254688,0,0,0,1
1.032062025337341,-1.1668616842317099,0.6964705897254688,0,0,0,1
0.35332919533734086,-0.40881703423170984,0.28649861972546875,0,0,0,1
0.35332919533734086,-0.40881703423170984,0.28649861972546875,0,0,0,1
0.35332919533734086,-0.40881703423170984,0.28649861972546875,0,0,0,1
-0.21593330466265911,1.1489112157682901,0.15149221972546878,0,0,0,1
-0.5851406746626591,0.8406371157682901,-0.38308582027453125,0,0,0,1
0.4567370553373409,-1.09279498423171,-0.6800953502745312,0,0,0,1
0.4567370553373409,-1.09279498423171,-0.6800953502745312,0,0,0,1
0.4567370553373409,-1.09279498423171,-0.6800953502745312,0,0,0,1
-1.249324274662659,-0.33971048423170985,0.5877419197254689,0,0,0,1
1.044487525337341,1.07559561576829,1.302047619725469,0,0,0,1
1.044164225337341,1.07031301576829,1.2989678197254688,0,0,0,1
1.044164225337341,1.07031301576829,1.2989678197254688,0,0,0,1
1.459435025337341,0.09405415076829013,-0.2666256802745312,0,0,0,1
-1.902110574662659,-0.9030952242317098,-0.44653741027453125,0,0,0,1
-1.902110574662659,-0.9030952242317098,-0.44653741027453125,0,0,0,1
-2.176856074662659,-0.14177645423170987,-0.42983588027453123,0,0,0,1
1.381604725337341,-0.13511933423170988,-0.3547908402745312,0,0,0,1
1.381604725337341,-0.13511933423170988,-0.3547908402745312,0,0,0,1
0.4299435753373409,-0.7247879342317098,0.11283720972546878,0,0,0,1
0.4299435753373409,-0.7247879342317098,0.11283720972546878,0,0,0,1
-0.29216430466265914,-0.6533608242317098,0.8616279197254688,0,0,0,1
-1.646948274662659,1.75636961576829,0.8046177197254688,0,0,0,1
0.3328242453373409,0.5131777157682902,0.36907171972546876,0,0,0,1
2.034718025337341,-0.8047534842317099,-0.3367963102745312,0,0,0,1
0.9224839253373409,-1.47175968423171,-1.0012189502745312,0,0,0,1
0.9224839253373409,-1.47175968423171,-1.0012189502745312,0,0,0,1
-0.7273764746626591,-0.6515306842317099,-0.5187146802745312,0,0,0,1
-0.6433653746626591,0.24124436576829011,0.06683296972546877,0,0,0,1
-0.6459746246626591,1.66872841576829,0.28975384972546875,0,0,0,1
0.6670594253373409,1.68100481576829,0.4963426197254687,0,0,0,1
2.0700450253373406,0.4135342457682901,0.26305171972546876,0,0,0,1
1.293446125337341,-0.47700623423170985,0.17484618972546878,0,0,0,1
-1.377374174662659,-0.33341254423170985,0.35484209972546876,0,0,0,1
-1.377374174662659,-0.33341254423170985,0.35484209972546876,0,0,0,1
-1.377374174662659,-0.33341254423170985,0.35484209972546876,0,0,0,1
-1.377374174662659,-0.33341254423170985,0.35484209972546876,0,0,0,1
0.06850482533734088,1.50933341576829,-0.10163265627453123,0,0,0,1
1.875049125337341,0.29756481576829014,-0.3643764302745312,0,0,0,1
1.641383625337341,-1.05601748423171,-0.2853730002745312,0,0,0,1
1.641383625337341,-1.05601748423171,-0.2853730002745312,0,0,0,1
1.641383625337341,-1.05601748423171,-0.2853730002745312,0,0,0,1
-0.7488779746626592,-0.33381678423170985,-0.49605988027453124,0,0,0,1
0.08620788533734089,0.5575701157682902,0.29059436972546876,0,0,0,1
-0.42435024466265914,-0.34922475423170984,-0.06608087027453123,0,0,0,1
-0.42435024466265914,-0.34922475423170984,-0.06608087027453123,0,0,0,1
-0.6794733746626591,-0.7318150242317099,0.05807214972546878,0,0,0,1
-0.6794733746626591,-0.7318150242317099,0.05807214972546878,0,0,0,1
-1.180903874662659,1.1372744157682901,0.5195300197254689,0,0,0,1
0.8497138253373409,1.66337061576829,0.7673982697254689,0,0,0,1
0.8497138253373409,1.66337061576829,0.7673982697254689,0,0,0,1
0.9206452253373408,0.7659217157682902,-0.28354404027453123,0,0,0,1
0.1968541253373409,-0.5614450842317098,0.008889315725468774,0,0,0,1
0.1968541253373409,-0.5614450842317098,0.008889315725468774,0,0,0,1
-0.07166527466265911,-0.9809009242317098,-0.17697051027453123,0,0,0,1
0.6698594253373409,1.4787768157682901,0.28948671972546874,0,0,0,1
0.6698594253373409,1.4787768157682901,0.28948671972546874,0,0,0,1
2.132034725337341,1.62615741576829,0.6503243697254688,0,0,0,1
2.4584050253373406,0.7667418157682901,-0.0013491526745312253,0,0,0,1
1.525375825337341,0.37116487576829016,0.45241343972546877,0,0,0,1
1.525375825337341,0.37116487576829016,0.45241343972546877,0,0,0,1
-2.001121074662659,0.27806371576829014,0.4214501697254688,0,0,0,1
-1.890641174662659,-0.31576613423170985,0.8458025197254688,0,0,0,1
0.3502144953373409,-0.3758637442317099,0.32318091972546875,0,0,0,1
2.155830925337341,-0.19954097423170988,0.03084104372546877,0,0,0,1
0.6181702753373409,-0.5906468842317099,-0.18620536027453122,0,0,0,1
0.6181702753373409,-0.5906468842317099,-0.18620536027453122,0,0,0,1
-1.102335474662659,-1.29702028423171,-0.13795543027453122,0,0,0,1
-1.102335474662659,-1.29702028423171,-0.13795543027453122,0,0,0,1
0.8222546753373409,-1.8330180842317099,0.4212852997254688,0,0,0,1
0.8222546753373409,-1.8330180842317099,0.4212852997254688,0,0,0,1
2.5287490253373406,-0.10862411423170987,-0.37946233027453125,0,0,0,1
1.952616225337341,1.2178177157682901,-0.40950564027453124,0,0,0,1
1.952616225337341,1.2178177157682901,-0.40950564027453124,0,0,0,1
-3.7955030746626592,2.8761866157682903,-0.04870887627453122,0,0,0,1
-3.7960372746626594,2.8631003157682904,-0.059941632274531226,0,0,0,1
2.114324125337341,0.12033543576829013,-1.282748580274531,0,0,0,1
2.114324125337341,0.12033543576829013,-1.282748580274531,0,0,0,1
6.058912725337341,-0.7922292842317099,-1.2661206802745313,0,0,0,1
3.821914225337341,2.1562233157682904,-2.0125341802745313,0,0,0,1
0.005857007337340895,1.61183091576829,-1.5929934802745311,0,0,0,1
-7.81621977466266,-1.16566058423171,1.4404852197254687,0,0,0,1
-3.2708134746626594,-0.5355331842317098,1.8288473197254689,0,0,0,1
4.6934943253373405,0.4891193657682901,-0.18698923027453124,0,0,0,1
4.637567025337341,-1.06838108423171,0.15738067972546876,0,0,0,1
2.2948193253373406,-4.29703468423171,-1.6696102802745312,0,0,0,1
-0.9096054746626591,-2.3608262842317096,-1.0632359802745313,0,0,0,1
-2.1085500746626593,4.23785541576829,2.0714349197254687,0,0,0,1
-2.1085500746626593,4.23785541576829,2.0714349197254687,0,0,0,1
-2.1085500746626593,4.23785541576829,2.0714349197254687,0,0,0,1
-1.397476674662659,3.2553062157682904,1.8830091197254688,0,0,0,1
-1.397476674662659,3.2553062157682904,1.8830091197254688,0,0,0,1
3.638854525337341,-2.4529082842317096,-0.0066630408745312255,0,0,0,1
3.638854525337341,-2.4529082842317096,-0.0066630408745312255,0,0,0,1
3.638854525337341,-2.4529082842317096,-0.0066630408745312255,0,0,0,1
-0.4421992146626591,3.40922621576829,0.32264723972546877,0,0,0,1
-0.4421992146626591,3.40922621576829,0.32264723972546877,0,0,0,1
-0.07249973466265912,1.54965831576829,0.018372027725468774,0,0,0,1
-0.07249973466265912,1.54965831576829,0.018372027725468774,0,0,0,1
0.12029983533734089,-0.5753312842317099,-0.5353023102745311,0,0,0,1
-1.478815574662659,0.7067708157682902,0.8236123597254689,0,0,0,1
-1.764277874662659,-0.2199717542317099,1.2414648197254687,0,0,0,1
-1.071174174662659,-1.29708718423171,0.9791390197254688,0,0,0,1
-1.071174174662659,-1.29708718423171,0.9791390197254688,0,0,0,1
-0.2915701746626591,-0.5487693842317098,0.6146001497254688,0,0,0,1
3.249794525337341,1.10600591576829,-0.04867380227453122,0,0,0,1
3.0562234253373406,1.07809271576829,-0.4985522302745312,0,0,0,1
0.7002120253373408,0.40375461576829014,-0.8893261302745312,0,0,0,1
-1.061256874662659,-0.40472511423170987,-1.2458459802745312,0,0,0,1
-1.570401674662659,-0.7291242342317099,-0.8468764102745312,0,0,0,1
-1.570401674662659,-0.7291242342317099,-0.8468764102745312,0,0,0,1
-1.467627074662659,-0.17300308423170987,-0.3423609802745312,0,0,0,1
-0.5352616146626591,0.8865892457682901,0.2789197597254688,0,0,0,1
