acc_x,acc_y,acc_z,gyro_x,gyro_y,gyro_z,label
0.025558011337340893,0.05443941576829013,0.037418143725468776,0,0,0,0
0.025558011337340893,0.05443941576829013,0.037418143725468776,0,0,0,0
-0.11494186466265913,0.027755290768290128,-0.04047500627453122,0,0,0,0
-0.07389581966265911,0.03423421976829013,0.08022999572546877,0,0,0,0
-0.04776123466265911,0.018302022768290127,0.025973085725468772,0,0,0,0
-0.022089369662659106,-0.009467357231709871,-0.03704836027453122,0,0,0,0
0.022595517337340894,0.0005786164682901288,0.00024711372546877466,0,0,0,0
-0.050065596662659105,0.04093406876829013,0.0028006477254687743,0,0,0,0
-0.045908054662659105,0.053661155768290135,-0.009364707774531226,0,0,0,0
-0.029871256662659107,0.05545563576829013,0.010826961725468775,0,0,0,0
0.014945237337340895,0.04166302576829013,-0.02904105927453123,0,0,0,0
-0.019891150662659104,0.010002248768290128,0.004585902325468774,0,0,0,0
-0.019891150662659104,0.010002248768290128,0.004585902325468774,0,0,0,0
0.004017750337340894,0.013967295768290129,-0.04621325327453122,0,0,0,0
0.004017750337340894,0.013967295768290129,-0.04621325327453122,0,0,0,0
0.06422578533734088,0.05906821576829013,-0.0026892259745312248,0,0,0,0
0.0313483403373409,0.07810346576829014,0.016214494725468775,0,0,0,0
-0.03426559766265911,0.02264589676829013,0.021585492725468773,0,0,0,0
0.0760974093373409,0.015261133768290129,-0.024754937274531225,0,0,0,0
0.0760974093373409,0.015261133768290129,-0.024754937274531225,0,0,0,0
0.09967977533734089,0.04069645776829013,-0.025904746274531227,0,0,0,0
0.09967977533734089,0.04069645776829013,-0.025904746274531227,0,0,0,0
-0.043079359662659106,0.016171586768290128,-0.07063089027453123,0,0,0,0
-0.08330848966265911,-0.008695116231709871,0.06220835972546878,0,0,0,0
-0.006643183862659106,0.011620906768290128,0.06381836972546877,0,0,0,0
-0.006643183862659106,0.011620906768290128,0.06381836972546877,0,0,0,0
0.13842708533734088,-0.001813977531709872,-0.017811580274531225,0,0,0,0
-0.10012205466265911,0.0056786571682901285,0.06078556972546877,0,0,0,0
-0.10012205466265911,0.0056786571682901285,0.06078556972546877,0,0,0,0
0.02779456833734089,0.029024082768290126,-0.015538139674531225,0,0,0,0
0.02779456833734089,0.029024082768290126,-0.015538139674531225,0,0,0,0
0.09665519533734088,-0.04058479023170987,-0.06711634027453123,0,0,0,0
0.09665519533734088,-0.04058479023170987,-0.06711634027453123,0,0,0,0
0.013814370337340898,-0.08345096423170988,0.005137102725468774,0,0,0,0
0.013814370337340898,-0.08345096423170988,0.005137102725468774,0,0,0,0
-0.09836672166265911,0.04559419776829013,0.03513892172546878,0,0,0,0
0.028168217337340894,0.029819208768290133,-0.028547485274531225,0,0,0,0
0.028168217337340894,0.029819208768290133,-0.028547485274531225,0,0,0,0
0.07493917133734089,-0.0023731607317098715,0.020189074725468773,0,0,0,0
0.042773072337340894,-0.05058192423170987,-0.07655978027453123,0,0,0,0
-0.12148540466265911,-0.00904787523170987,-0.024811287274531225,0,0,0,0
0.006032578337340894,-0.01715753023170987,0.002772717125468776,0,0,0,0
0.07051336033734089,-0.02677732923170987,-0.11099371027453123,0,0,0,0
-0.1229369946626591,0.005566020768290128,0.06542451972546877,0,0,0,0
-0.1229369946626591,0.005566020768290128,0.06542451972546877,0,0,0,0
0.0399174853373409,-0.04181216923170987,0.0046468657254687745,0,0,0,0
0.0399174853373409,-0.04181216923170987,0.0046468657254687745,0,0,0,0
-0.021216757662659104,-0.01762061923170987,0.04427855472546877,0,0,0,0
-0.10667866466265911,0.005616055768290129,0.09503761972546877,0,0,0,0
-0.15578325466265913,0.02599240176829013,0.06619228972546877,0,0,0,0
-0.08128708466265912,0.01982247976829013,0.010388569725468776,0,0,0,0
0.06572581933734088,-0.008252954231709872,0.046143655725468774,0,0,0,0
0.0975068253373409,-0.03956059123170987,-0.04663644627453122,0,0,0,0
0.034752765337340896,-0.01923179623170987,0.019682876725468777,0,0,0,0
-0.10306042066265911,0.02488370876829013,0.032467189725468776,0,0,0,0
-0.10317619466265912,0.024660158768290127,0.03178311972546878,0,0,0,0
-0.0816369846626591,0.04254804876829013,0.03447507972546878,0,0,0,0
0.11375590533734088,-0.04354843123170987,0.010919193725468773,0,0,0,0
0.11375590533734088,-0.04354843123170987,0.010919193725468773,0,0,0,0
0.060874285337340885,-0.04377800223170987,-0.03401645027453122,0,0,0,0
-0.020564158662659107,-0.021860682231709873,0.02972168172546877,0,0,0,0
-0.04280145966265911,0.03469666276829013,0.05803259972546878,0,0,0,0
0.035456195337340894,0.020298807768290128,-0.04282267827453122,0,0,0,0
0.035456195337340894,0.020298807768290128,-0.04282267827453122,0,0,0,0
0.1396411053373409,0.007751197068290128,0.0009884047254687745,0,0,0,0
0.024326817337340895,0.012939063168290127,-0.12575817027453123,0,0,0,0
-0.045577891662659104,0.0040501218682901284,-0.013551051974531225,0,0,0,0
-0.0642421546626591,-0.018456134231709873,0.14812921972546877,0,0,0,0
-0.0642421546626591,-0.018456134231709873,0.14812921972546877,0,0,0,0
0.21259071533734092,-0.01382695423170987,-0.08355918727453124,0,0,0,0
0.21259071533734092,-0.01382695423170987,-0.08355918727453124,0,0,0,0
0.11304456533734089,0.08117293176829013,-0.07549133027453123,0,0,0,0
-0.051999171662659105,0.051833175768290135,-0.08867041627453123,0,0,0,0
-0.051999171662659105,0.051833175768290135,-0.08867041627453123,0,0,0,0
-0.2155436346626591,-0.03816854923170987,0.10084882972546877,0,0,0,0
0.06747562133734089,-0.024535950231709874,-0.027110322274531227,0,0,0,0
0.23951245533734086,-0.0009119435317098716,-0.11363061027453122,0,0,0,0
0.23951245533734086,-0.0009119435317098716,-0.11363061027453122,0,0,0,0
0.1050804253373409,0.01956748076829013,-0.06383957427453123,0,0,0,0
-0.11503713466265911,-0.007462270831709871,0.014563683725468773,0,0,0,0
-0.11503713466265911,-0.007462270831709871,0.014563683725468773,0,0,0,0
-0.11503713466265911,-0.007462270831709871,0.014563683725468773,0,0,0,0
-0.1259987646626591,0.02125865076829013,0.07184537972546877,0,0,0,0
0.00015184103734089491,-0.04632692923170987,-0.06488300027453123,0,0,0,0
0.11914836533734088,-0.07935945423170987,-0.08738119027453123,0,0,0,0
0.028319279337340894,-0.053090984231709874,0.046103329725468774,0,0,0,0
-0.0455732186626591,-0.01659045723170987,0.014371029725468772,0,0,0,0
-0.0601522286626591,0.023065290768290128,0.027127866725468772,0,0,0,0
-0.0601522286626591,0.023065290768290128,0.027127866725468772,0,0,0,0
0.07793571133734088,-0.02241369723170987,0.03357667172546878,0,0,0,0
0.07793571133734088,-0.02241369723170987,0.03357667172546878,0,0,0,0
0.1382115553373409,-0.06015069423170987,0.06473857572546877,0,0,0,0
0.1382115553373409,-0.06015069423170987,0.06473857572546877,0,0,0,0
-0.07435940066265911,0.05548547576829013,-0.04011155027453122,0,0,0,0
-0.17356594466265912,0.05714794576829013,-0.023740442274531225,0,0,0,0
-0.19213770466265911,0.011162905768290128,0.04128123972546878,0,0,0,0
-0.19213770466265911,0.011162905768290128,0.04128123972546878,0,0,0,0
-0.11268413466265911,-0.046508830231709875,0.07781713972546878,0,0,0,0
-0.006196864262659106,-0.08981573423170987,-0.019750268774531225,0,0,0,0
0.09861280533734089,-0.06002920423170987,-0.059639140274531224,0,0,0,0
-0.004969103962659106,0.004753096468290129,-0.07778189027453122,0,0,0,0
-0.12332485466265912,0.02769075576829013,0.11546811972546876,0,0,0,0
-0.10226887066265912,0.02845081576829013,-0.015957589274531225,0,0,0,0
-0.009001620462659106,-0.005096769631709872,-0.17780183027453123,0,0,0,0
0.07513391233734089,-0.02918632023170987,0.04829194972546878,0,0,0,0
-0.08013885766265912,-0.060421794231709874,-0.016002316774531226,0,0,0,0
-0.08013885766265912,-0.060421794231709874,-0.016002316774531226,0,0,0,0
-0.09631984966265911,0.0025550605682901286,0.10018169972546877,0,0,0,0
0.013446537337340896,0.03624324876829013,0.06362395972546878,0,0,0,0
0.1438881053373409,0.0012776755682901287,-0.050098522274531224,0,0,0,0
0.1438881053373409,0.0012776755682901287,-0.050098522274531224,0,0,0,0
0.047458285337340894,0.016661152768290128,0.046544699725468784,0,0,0,0
-0.0333187896626591,-0.0032879082317098718,-0.010128445974531225,0,0,0,0
-0.0333187896626591,-0.0032879082317098718,-0.010128445974531225,0,0,0,0
0.008343426337340896,-0.03463105223170987,0.05072174472546878,0,0,0,0
0.07469388533734089,-0.02786579723170987,0.013177089725468775,0,0,0,0
0.1480883753373409,-0.0023559465317098717,-0.09897023027453124,0,0,0,0
0.10856544533734089,-0.011522359231709871,-0.13128639027453123,0,0,0,0
-0.03159902866265911,-0.005381343831709871,-0.04016889027453122,0,0,0,0
-0.16432379466265912,-0.010512744231709871,0.14576400972546877,0,0,0,0
-0.1728679046626591,-0.03158472723170987,0.10299857972546876,0,0,0,0
0.22595426533734092,0.03041407576829013,-0.007735700946531226,0,0,0,0
0.22595426533734092,0.03041407576829013,-0.007735700946531226,0,0,0,0
0.20089084533734086,0.07742769576829013,-0.19458743027453124,0,0,0,0
0.1003365653373409,0.019145135768290127,-0.20461502027453124,0,0,0,0
-0.23844230466265912,-0.04662635023170987,0.10878463972546878,0,0,0,0
-0.1265472246626591,0.0030316506382901285,-0.015926547274531223,0,0,0,0
0.16116019533734088,-0.03356450423170987,-0.045007522274531225,0,0,0,0
0.1769828053373409,-0.01408288723170987,0.012956778725468774,0,0,0,0
0.1769828053373409,-0.01408288723170987,0.012956778725468774,0,0,0,0
-0.25834530466265915,0.045640343768290126,-0.04096852027453122,0,0,0,0
-0.09525345166265911,-0.052787649231709866,0.11167118972546877,0,0,0,0
0.0403139273373409,-0.07653011023170987,-0.07584683427453123,0,0,0,0
0.0403139273373409,-0.07653011023170987,-0.07584683427453123,0,0,0,0
0.0887924353373409,-0.027428400231709872,-0.032843610274531226,0,0,0,0
-0.03449209466265911,-0.010967444231709872,-0.010084719974531225,0,0,0,0
-0.03449209466265911,-0.010967444231709872,-0.010084719974531225,0,0,0,0
-0.07619150466265912,0.02285509776829013,0.10176254972546878,0,0,0,0
0.005266014937340894,-0.01275023723170987,-0.001747210274531225,0,0,0,0
0.0792183053373409,-0.003533641531709871,-0.02664984027453123,0,0,0,0
0.0792183053373409,-0.003533641531709871,-0.02664984027453123,0,0,0,0
0.0792183053373409,-0.003533641531709871,-0.02664984027453123,0,0,0,0
0.05223542833734089,-0.056380064231709874,0.054455139725468775,0,0,0,0
-0.1779355346626591,0.025893354768290126,-0.027987976274531225,0,0,0,0
-0.0570986586626591,-0.028558921231709868,0.06924097372546877,0,0,0,0
-0.0041633445126591055,-0.05845370823170987,0.01809027672546877,0,0,0,0
0.1496495453373409,-0.07352157423170987,-0.04597091227453122,0,0,0,0
0.06360513533734088,-0.011516894231709872,-0.03537370727453122,0,0,0,0
-0.0786554146626591,0.06688128576829012,0.012453333725468776,0,0,0,0
-0.0786554146626591,0.06688128576829012,0.012453333725468776,0,0,0,0
-0.016247733262659107,0.04221165776829013,-0.06460243027453123,0,0,0,0
-0.016247733262659107,0.04221165776829013,-0.06460243027453123,0,0,0,0
-0.016247733262659107,0.04221165776829013,-0.06460243027453123,0,0,0,0
0.09688245533734088,0.031109245768290127,-0.08355614727453123,0,0,0,0
-0.050307924662659105,-0.09759312423170988,-0.011300583274531225,0,0,0,0
-0.050307924662659105,-0.09759312423170988,-0.011300583274531225,0,0,0,0
-0.16259229466265912,-0.02072872723170987,0.13795870972546875,0,0,0,0
0.09498721533734089,0.03628317176829013,-0.042710216274531226,0,0,0,0
0.14869968533734088,0.033739829768290125,-0.03762411627453122,0,0,0,0
0.1021457853373409,0.006684619768290129,-0.04859344527453122,0,0,0,0
0.028785055337340895,-0.02562506123170987,-0.027953430274531225,0,0,0,0
-0.0500881986626591,-0.034052699231709865,-0.026984592274531226,0,0,0,0
-0.11327198466265911,-0.0040994872317098715,0.05915002972546877,0,0,0,0
-0.09831989466265911,0.031162585768290132,0.10398191972546876,0,0,0,0
0.14510480533734088,-0.020963324231709872,-0.11876493027453122,0,0,0,0
0.14510480533734088,-0.020963324231709872,-0.11876493027453122,0,0,0,0
0.1892254953373409,-0.004982934231709871,-0.0014197662745312253,0,0,0,0
-0.08493269466265911,0.024113279768290127,-0.018045623274531224,0,0,0,0
-0.08599355966265912,0.011984684768290128,0.05773893972546878,0,0,0,0
-0.10721643466265911,-0.02190989923170987,0.07179510972546878,0,0,0,0
-0.10721643466265911,-0.02190989923170987,0.07179510972546878,0,0,0,0
