acc_x,acc_y,acc_z,gyro_x,gyro_y,gyro_z,label
0.008946721337340893,-0.04155026623170987,-0.008010490274531224,0,0,0,0
-0.08157432866265911,0.028626485768290126,0.019440297725468774,0,0,0,0
-0.08157432866265911,0.028626485768290126,0.019440297725468774,0,0,0,0
0.08861705533734089,-0.02918465723170987,-0.037213440274531225,0,0,0,0
0.08861705533734089,-0.02918465723170987,-0.037213440274531225,0,0,0,0
-0.019654734662659105,0.007123738968290129,-0.018177195274531224,0,0,0,0
-0.019654734662659105,0.007123738968290129,-0.018177195274531224,0,0,0,0
-0.019654734662659105,0.007123738968290129,-0.018177195274531224,0,0,0,0
-0.0027875739626591054,0.026161795768290128,-0.020678706274531226,0,0,0,0
0.04517299333734089,-0.022005587231709874,-0.0017973736745312248,0,0,0,0
0.006425015337340893,0.013783520768290128,0.013651709725468773,0,0,0,0
0.006425015337340893,0.013783520768290128,0.013651709725468773,0,0,0,0
-0.030240234662659102,0.03214098576829013,0.005172292725468776,0,0,0,0
-0.025454981662659106,0.031232637768290127,0.016481975725468775,0,0,0,0
-0.018618281662659105,0.0017727319982901286,0.016817848725468775,0,0,0,0
0.017725770337340893,-0.002645927231709871,-0.0035215332745312253,0,0,0,0
0.07146197933734089,-0.021916830231709872,-0.02511126527453123,0,0,0,0
0.045240799337340896,-0.02155029723170987,-0.029884346274531227,0,0,0,0
-0.018476469662659107,0.008477378368290128,-0.045146985274531225,0,0,0,0
-0.04888685466265911,0.03952355976829013,-0.027996810274531228,0,0,0,0
-0.036535056662659104,0.029910129768290127,-0.005759318274531225,0,0,0,0
0.011901967337340894,0.019627890768290128,-0.0035348609745312247,0,0,0,0
0.045130173337340894,0.0010475163682901285,-0.004448051774531225,0,0,0,0
0.05630647533734089,-0.005014907831709871,-0.022273000274531225,0,0,0,0
0.08951389033734089,0.01856131276829013,-0.014429290274531225,0,0,0,0
0.08951389033734089,0.01856131276829013,-0.014429290274531225,0,0,0,0
0.08951389033734089,0.01856131276829013,-0.014429290274531225,0,0,0,0
-0.0653136096626591,0.023031887768290127,-0.012687416274531224,0,0,0,0
-0.0653136096626591,0.023031887768290127,-0.012687416274531224,0,0,0,0
-0.0653136096626591,0.023031887768290127,-0.012687416274531224,0,0,0,0
-0.0657841546626591,0.04050739576829013,0.008813981725468774,0,0,0,0
0.09542962533734088,-0.022660249231709874,-0.003412647574531225,0,0,0,0
0.0390873113373409,0.04820058076829013,0.013350693725468776,0,0,0,0
0.0390873113373409,0.04820058076829013,0.013350693725468776,0,0,0,0
0.0390873113373409,0.04820058076829013,0.013350693725468776,0,0,0,0
0.0390873113373409,0.04820058076829013,0.013350693725468776,0,0,0,0
0.0390873113373409,0.04820058076829013,0.013350693725468776,0,0,0,0
-0.0026743727626591055,0.04751379876829013,0.023966721725468775,0,0,0,0
0.07010013533734089,-0.015850835231709874,-0.024874754274531227,0,0,0,0
0.07010013533734089,-0.015850835231709874,-0.024874754274531227,0,0,0,0
0.13890124533734088,0.009628567768290129,-0.014069576274531224,0,0,0,0
0.13890124533734088,0.009628567768290129,-0.014069576274531224,0,0,0,0
-0.0626237706626591,-0.002310263631709872,-0.0008728817745312254,0,0,0,0
-0.07363756466265911,0.014549306768290129,-0.003221149774531225,0,0,0,0
-0.07363756466265911,0.014549306768290129,-0.003221149774531225,0,0,0,0
0.12028333533734088,0.023327160768290132,-0.016868682274531227,0,0,0,0
0.19097902533734087,-0.02066892923170987,-0.008641822674531225,0,0,0,0
0.18344098533734088,-0.03058096123170987,-0.02468788227453123,0,0,0,0
-0.045810778662659105,0.01772878176829013,-0.008029253824531225,0,0,0,0
-0.0985518296626591,0.04127793976829013,0.023379163725468773,0,0,0,0
-0.0381148176626591,0.02693815576829013,0.0028600377254687738,0,0,0,0
0.2013530853373409,-0.03984618723170987,0.012077299725468775,0,0,0,0
0.2013530853373409,-0.03984618723170987,0.012077299725468775,0,0,0,0
0.2013530853373409,-0.03984618723170987,0.012077299725468775,0,0,0,0
-0.007114203662659106,0.008106062268290129,0.001895587125468774,0,0,0,0
-0.007114203662659106,0.008106062268290129,0.001895587125468774,0,0,0,0
-0.059163074662659104,0.05565702976829013,0.02872898972546877,0,0,0,0
-0.025032504662659105,0.05046387576829013,0.014625589725468773,0,0,0,0
0.07675754533734089,0.011430615768290128,-0.018994291274531224,0,0,0,0
0.15757524533734088,-0.03302268423170987,-0.023350687274531226,0,0,0,0
0.15757524533734088,-0.03302268423170987,-0.023350687274531226,0,0,0,0
0.1655618853373409,-0.05876575423170987,-0.05216719627453122,0,0,0,0
-0.022386344662659104,0.04150166576829013,0.010786501725468772,0,0,0,0
0.09349586233734089,0.01970586576829013,-0.0038756445745312257,0,0,0,0
0.1442193153373409,-0.02886372123170987,-0.033652992274531224,0,0,0,0
0.1442193153373409,-0.02886372123170987,-0.033652992274531224,0,0,0,0
0.032187955337340896,0.01836921276829013,0.009168080725468774,0,0,0,0
0.032187955337340896,0.01836921276829013,0.009168080725468774,0,0,0,0
0.032187955337340896,0.01836921276829013,0.009168080725468774,0,0,0,0
0.13326598533734088,-0.05249527423170987,-0.014860029274531224,0,0,0,0
0.13326598533734088,-0.05249527423170987,-0.014860029274531224,0,0,0,0
0.13326598533734088,-0.05249527423170987,-0.014860029274531224,0,0,0,0
0.13326598533734088,-0.05249527423170987,-0.014860029274531224,0,0,0,0
0.008377091337340895,0.023195344768290126,0.0016907021254687757,0,0,0,0
0.1427579053373409,-0.06425988423170986,-0.018235810274531226,0,0,0,0
0.1427579053373409,-0.06425988423170986,-0.018235810274531226,0,0,0,0
0.0941342513373409,-0.03803478423170987,-0.015819056274531226,0,0,0,0
0.0941342513373409,-0.03803478423170987,-0.015819056274531226,0,0,0,0
0.0941342513373409,-0.03803478423170987,-0.015819056274531226,0,0,0,0
-0.026125891662659106,0.027640930768290127,0.013076953725468774,0,0,0,0
0.1512382653373409,-0.03135197123170987,-0.012061519974531226,0,0,0,0
0.1512382653373409,-0.03135197123170987,-0.012061519974531226,0,0,0,0
0.1245278553373409,-0.035580491231709865,-0.04994893827453122,0,0,0,0
0.1245278553373409,-0.035580491231709865,-0.04994893827453122,0,0,0,0
0.06330434533734089,0.011750644768290129,-0.027020247274531225,0,0,0,0
0.06330434533734089,0.011750644768290129,-0.027020247274531225,0,0,0,0
0.0013721626373408942,0.043509705768290136,-0.0014337972745312256,0,0,0,0
-0.014005549662659104,0.01825035276829013,-0.019784696274531225,0,0,0,0
0.1218704353373409,-0.061806884231709866,-0.009509260974531225,0,0,0,0
0.1218704353373409,-0.061806884231709866,-0.009509260974531225,0,0,0,0
0.0865845853373409,-0.04356520723170987,-0.009110327074531225,0,0,0,0
0.027420441337340895,0.0037327234682901288,0.009952513725468775,0,0,0,0
0.008236996337340895,0.027775487768290134,0.018873135725468775,0,0,0,0
0.003541771737340895,0.01557092976829013,0.028123537725468776,0,0,0,0
0.003541771737340895,0.01557092976829013,0.028123537725468776,0,0,0,0
0.04783975533734089,0.004759473068290129,-0.00010559127453122451,0,0,0,0
0.04783975533734089,0.004759473068290129,-0.00010559127453122451,0,0,0,0
0.12479602533734088,-0.03998711623170987,-0.027421815274531226,0,0,0,0
-0.030029089662659107,0.022738161768290126,0.024886814725468772,0,0,0,0
0.041146485337340895,-0.040501087231709865,-0.05736972827453122,0,0,0,0
-0.030029089662659107,0.022738161768290126,0.024886814725468772,0,0,0,0
0.024740807337340895,0.02355903776829013,0.02603522972546878,0,0,0,0
0.11186467533734087,-0.02948699423170987,0.015637223725468774,0,0,0,0
0.13306361533734087,-0.07198215423170988,0.012738232725468774,0,0,0,0
0.07123109533734089,-0.051613139231709876,0.006681994725468775,0,0,0,0
0.016577164337340897,0.03465685876829013,0.005249218725468776,0,0,0,0
0.025380913337340896,0.008804273768290127,-0.018775339274531226,0,0,0,0
0.06164972033734089,-0.007073479231709872,-0.030048604274531227,0,0,0,0
0.12928096533734088,-0.026415598231709872,-0.027537854274531225,0,0,0,0
0.12928096533734088,-0.026415598231709872,-0.027537854274531225,0,0,0,0
0.14020215533734087,-0.02560691223170987,-0.026923223274531227,0,0,0,0
-0.020117075662659106,-0.0002780254317098713,-0.010390134274531225,0,0,0,0
0.0032408873373408935,-0.02741913723170987,0.02455977672546877,0,0,0,0
0.07312404533734089,-0.007161563231709871,0.011781422725468775,0,0,0,0
0.03726236033734089,0.02108475576829013,0.03235950972546878,0,0,0,0
-0.014186652662659106,0.03294140176829013,0.017667726725468774,0,0,0,0
-0.014186652662659106,0.03294140176829013,0.017667726725468774,0,0,0,0
-0.014186652662659106,0.03294140176829013,0.017667726725468774,0,0,0,0
-0.006045230062659106,0.04818103076829013,-0.0012887792745312253,0,0,0,0
-0.006045230062659106,0.04818103076829013,-0.0012887792745312253,0,0,0,0
0.024213902337340894,-0.012473434231709872,-0.03545238527453122,0,0,0,0
-0.045543177662659105,0.02697951576829013,0.009142248725468774,0,0,0,0
-0.045543177662659105,0.02697951576829013,0.009142248725468774,0,0,0,0
0.06615831033734089,0.011901218168290128,0.014967481725468773,0,0,0,0
0.06615831033734089,0.011901218168290128,0.014967481725468773,0,0,0,0
0.06615831033734089,0.011901218168290128,0.014967481725468773,0,0,0,0
0.1134823053373409,-0.022650021231709873,0.013988987725468773,0,0,0,0
0.026302830337340894,-0.02030120423170987,-0.004257221574531225,0,0,0,0
-0.048093779662659104,0.03925464576829013,0.014642135725468776,0,0,0,0
-0.09440735166265911,0.05096633176829013,0.008535746725468776,0,0,0,0
-0.09440735166265911,0.05096633176829013,0.008535746725468776,0,0,0,0
0.1024982653373409,-0.0001858230317098716,-0.018487806674531225,0,0,0,0
0.1024982653373409,-0.0001858230317098716,-0.018487806674531225,0,0,0,0
0.1026090753373409,-0.00022513223170987163,-0.017805035274531224,0,0,0,0
-0.028252108662659106,-0.0004231686317098713,0.02567346572546877,0,0,0,0
-0.0426422916626591,0.02112841976829013,0.030966834725468777,0,0,0,0
0.013651768337340896,0.03086187576829013,-0.0030964212745312253,0,0,0,0
0.013651768337340896,0.03086187576829013,-0.0030964212745312253,0,0,0,0
0.0397436303373409,-0.04432169723170987,-0.03970262527453122,0,0,0,0
-0.027873404662659106,-0.008478873231709871,-0.0015117122745312251,0,0,0,0
-0.011864169262659107,0.04953849076829013,0.04318982972546878,0,0,0,0
0.037426678337340896,0.05797826076829013,0.03819474472546878,0,0,0,0
0.040161721337340896,-0.03416054223170987,0.017460231725468775,0,0,0,0
0.010674397337340893,-0.05290974923170987,0.0068318647254687745,0,0,0,0
0.0470849193373409,-0.03500426923170987,-0.004641719274531225,0,0,0,0
0.0953036453373409,-0.002988165231709871,0.0006239577254687741,0,0,0,0
0.04229184833734089,0.051846505768290134,0.016354719725468772,0,0,0,0
0.04229184833734089,0.051846505768290134,0.016354719725468772,0,0,0,0
-0.0439432946626591,0.01773220076829013,0.008015767725468772,0,0,0,0
0.058105105337340895,-0.04904127123170987,0.006647626725468773,0,0,0,0
0.1110038953373409,-0.006273293231709871,0.007283811725468774,0,0,0,0
0.1110038953373409,-0.006273293231709871,0.007283811725468774,0,0,0,0
-0.08396671466265912,0.08347799276829013,0.012237994725468774,0,0,0,0
-0.019086726662659106,0.07018088176829014,0.002837006725468774,0,0,0,0
0.0783058353373409,0.03070373576829013,-0.008768852074531226,0,0,0,0
0.11194068533734089,0.0020219181682901285,-0.04823693827453122,0,0,0,0
0.11194068533734089,0.0020219181682901285,-0.04823693827453122,0,0,0,0
-0.019079668662659106,0.004032409668290129,0.022212629725468773,0,0,0,0
-0.10954931466265912,0.09153501576829012,0.030574612725468773,0,0,0,0
-0.10954931466265912,0.09153501576829012,0.030574612725468773,0,0,0,0
-0.10954931466265912,0.09153501576829012,0.030574612725468773,0,0,0,0
-0.10954931466265912,0.09153501576829012,0.030574612725468773,0,0,0,0
0.10828382533734089,-0.03654124123170987,-0.013139374574531225,0,0,0,0
0.025953595337340898,0.015178805768290128,-0.004037554574531225,0,0,0,0
-0.0555728746626591,0.05366609176829013,0.020351271725468776,0,0,0,0
-0.09810531866265912,0.03322547976829013,0.0004398867254687749,0,0,0,0
0.04108440133734089,-0.0031415160317098713,-0.020370967274531224,0,0,0,0
-0.008116229162659106,0.03757800576829013,0.013742439725468774,0,0,0,0
-0.015383990662659105,0.09238672876829014,0.03922355572546878,0,0,0,0
-0.015383990662659105,0.09238672876829014,0.03922355572546878,0,0,0,0
0.06728107133734089,0.045286709768290134,0.0025500697254687748,0,0,0,0
