acc_x,acc_y,acc_z,gyro_x,gyro_y,gyro_z,label
-0.15136812466265911,0.12171911576829014,0.05477546272546878,0,0,0,0
-0.04749563466265911,0.10178486576829013,0.05338143572546878,0,0,0,0
-0.04749563466265911,0.10178486576829013,0.05338143572546878,0,0,0,0
0.1512877653373409,0.057956775768290135,-0.011938183074531226,0,0,0,0
-0.10710152466265913,0.009938273268290129,0.03603060672546878,0,0,0,0
-0.1070886446626591,0.00923450936829013,0.035553635725468775,0,0,0,0
-0.1566331746626591,0.06608204576829013,0.07824080472546877,0,0,0,0
0.0872245953373409,-0.08403090423170988,-0.2352471202745312,0,0,0,0
0.0872245953373409,-0.08403090423170988,-0.2352471202745312,0,0,0,0
0.1873206253373409,-0.13774781423170987,-0.23321427027453123,0,0,0,0
0.08911906933734089,-0.09151143423170986,-0.028043046274531226,0,0,0,0
-0.2672590046626591,0.06338803576829012,0.07322080572546877,0,0,0,0
-0.1726876146626591,0.045775371768290135,0.07056333972546877,0,0,0,0
0.048048035337340894,0.0029177271682901285,-0.23369918027453124,0,0,0,0
0.22110492533734089,-0.03778209423170987,-0.08222501027453123,0,0,0,0
0.22110492533734089,-0.03778209423170987,-0.08222501027453123,0,0,0,0
0.22110492533734089,-0.03778209423170987,-0.08222501027453123,0,0,0,0
-0.22411707466265912,0.1285340657682901,0.04169169972546878,0,0,0,0
-0.09391229966265911,0.056637829768290134,-0.030295093274531226,0,0,0,0
0.07881051533734089,0.013421058768290127,-0.018968052274531227,0,0,0,0
0.07881051533734089,0.013421058768290127,-0.018968052274531227,0,0,0,0
-0.006312449662659106,-0.08110457423170987,0.0009430423254687759,0,0,0,0
-0.1536727746626591,-0.038583504231709864,0.046376935725468776,0,0,0,0
-0.19138005466265912,-0.01804778823170987,0.04920637472546878,0,0,0,0
-0.09980390866265912,0.016539454768290128,0.027250094725468774,0,0,0,0
0.013917080337340897,0.02414987176829013,-0.004884114574531225,0,0,0,0
0.1422402553373409,0.03329091576829013,-0.1320273202745312,0,0,0,0
0.0617933453373409,0.027254909768290127,-0.12073004027453124,0,0,0,0
-0.07024687066265911,-0.02520534623170987,-0.07806052727453124,0,0,0,0
-0.12375667466265912,-0.06007122923170987,0.048305739725468776,0,0,0,0
-0.09801471966265911,0.01537491176829013,0.08804913972546877,0,0,0,0
-0.09801471966265911,0.01537491176829013,0.08804913972546877,0,0,0,0
0.07605191933734089,0.07994645876829012,0.05014926672546877,0,0,0,0
0.2258172253373409,0.05824608276829013,-0.0003603232745312251,0,0,0,0
0.06425220233734089,-0.037020432231709866,-0.28976453027453125,0,0,0,0
-0.2076134046626591,0.03705026876829013,0.10050272972546878,0,0,0,0
-0.2076134046626591,0.03705026876829013,0.10050272972546878,0,0,0,0
-0.2594690746626591,0.04911827776829013,0.12212769972546877,0,0,0,0
0.05960790533734089,-0.08900617923170988,-0.19439557027453125,0,0,0,0
0.05960790533734089,-0.08900617923170988,-0.19439557027453125,0,0,0,0
0.19254161533734088,-0.08023261423170987,-0.06320625027453122,0,0,0,0
-0.09570272466265911,0.02914645076829013,-0.005176900374531225,0,0,0,0
-0.1299368746626591,0.07014625076829013,-0.04389107427453122,0,0,0,0
-0.09842651466265911,0.04212117276829013,-0.08924336627453124,0,0,0,0
-0.09842651466265911,0.04212117276829013,-0.08924336627453124,0,0,0,0
0.052705115337340895,0.05337187076829013,-0.019948470274531227,0,0,0,0
-0.0642817346626591,0.05723053576829013,0.057189015725468785,0,0,0,0
-0.10139749866265911,0.016931463768290127,0.05757163972546878,0,0,0,0
0.0315012153373409,-0.04670014423170987,0.03424664572546878,0,0,0,0
0.0315012153373409,-0.04670014423170987,0.03424664572546878,0,0,0,0
0.1434613353373409,-0.06256564823170987,-0.10859782027453123,0,0,0,0
0.1434613353373409,-0.06256564823170987,-0.10859782027453123,0,0,0,0
0.1199031053373409,-0.08955088823170987,0.02800541372546877,0,0,0,0
-0.1514076046626591,0.06530445276829012,0.05615896972546878,0,0,0,0
-0.061146244662659104,0.08377361976829013,0.028011959725468775,0,0,0,0
0.11772910533734089,0.07744365576829013,-0.05648079327453122,0,0,0,0
0.2414197153373409,0.09193842576829013,-0.05772682027453122,0,0,0,0
0.2145059753373409,0.06328732576829013,-0.11299332027453123,0,0,0,0
0.16257688533734088,-0.028397536231709875,-0.15940247027453125,0,0,0,0
0.11863214533734087,-0.09821137423170986,-0.0015485972745312255,0,0,0,0
-0.23637364466265914,0.05313882576829013,0.13189645972546876,0,0,0,0
0.011808411337340896,-0.04204618023170987,0.055931763725468785,0,0,0,0
0.12906591533734088,-0.10486538423170987,-0.18191667027453123,0,0,0,0
0.22443725533734088,0.0023000632322901287,-0.031277789274531224,0,0,0,0
0.22443725533734088,0.0023000632322901287,-0.031277789274531224,0,0,0,0
-0.06500414466265911,-0.06159382423170988,-0.18252931027453123,0,0,0,0
-0.1812665746626591,0.08008276576829013,0.04582473472546878,0,0,0,0
0.033208577337340894,-0.12016382423170988,-0.17914750027453122,0,0,0,0
0.22273046533734092,-0.1552063542317099,-0.09743298427453123,0,0,0,0
0.14642078533734088,-0.07175529423170987,-0.009806896774531225,0,0,0,0
-0.019252856662659107,-0.018774260231709868,0.008262660725468773,0,0,0,0
-0.08858488466265911,0.04873307976829013,0.040742609725468774,0,0,0,0
-0.1189426246626591,0.059265870768290124,-0.05560220327453123,0,0,0,0
0.031789319337340895,-0.14438734423170987,-0.18719364027453123,0,0,0,0
0.1340387553373409,-0.1829160642317099,-0.010404513774531225,0,0,0,0
0.009222523337340895,-0.07819163723170987,0.07840393972546877,0,0,0,0
-0.1266067346626591,0.08390744576829014,0.10105813972546876,0,0,0,0
-0.13670824466265913,0.04865872876829013,0.08842182972546878,0,0,0,0
-0.16720312466265913,-0.00034054323170987135,-0.20548141027453123,0,0,0,0
0.0772030053373409,-0.004741526731709871,0.013792237725468774,0,0,0,0
0.026306073337340898,-0.04066954423170987,0.038230924725468775,0,0,0,0
0.026306073337340898,-0.04066954423170987,0.038230924725468775,0,0,0,0
-0.1450861746626591,0.03417521176829013,0.08730247472546877,0,0,0,0
-0.1329189146626591,0.02368421276829013,0.052602915725468775,0,0,0,0
0.08176681233734089,-0.004856446231709871,0.028330699725468773,0,0,0,0
0.08176681233734089,-0.004856446231709871,0.028330699725468773,0,0,0,0
-0.015712149662659106,-0.012453591231709872,-0.013166205674531226,0,0,0,0
-0.020529635662659106,-0.009769758231709872,0.09218533472546878,0,0,0,0
-0.12220438466265911,0.04624672576829013,0.06664698572546876,0,0,0,0
-0.13779514466265913,0.03307823876829013,0.04934431972546877,0,0,0,0
0.0741136713373409,-0.06807398423170988,0.02386945372546877,0,0,0,0
0.060829655337340895,-0.04194579423170987,0.001478172725468776,0,0,0,0
0.053875175337340896,-0.031512484231709874,0.03287506572546878,0,0,0,0
0.05757161533734089,-0.009656831231709871,0.025299369725468774,0,0,0,0
-0.012953360662659105,0.025986409768290128,-0.04894993027453122,0,0,0,0
-0.034150298662659104,-0.006565791231709871,0.019579529725468774,0,0,0,0
0.0500252883373409,-0.07827283423170987,0.010444155725468775,0,0,0,0
0.0500252883373409,-0.07827283423170987,0.010444155725468775,0,0,0,0
0.0382996723373409,0.03272746876829013,0.02486951172546877,0,0,0,0
0.008491055337340896,0.004180148768290128,-0.03471899027453122,0,0,0,0
0.002017800337340895,0.03773497976829013,0.058020613725468774,0,0,0,0
0.002017800337340895,0.03773497976829013,0.058020613725468774,0,0,0,0
0.002017800337340895,0.03773497976829013,0.058020613725468774,0,0,0,0
0.1383230353373409,-0.09145137423170988,-0.17558829027453124,0,0,0,0
0.004705540337340895,0.06046075276829013,0.011224432725468771,0,0,0,0
0.004705540337340895,0.06046075276829013,0.011224432725468771,0,0,0,0
-0.013370593162659105,-0.04126602423170987,-0.012111608774531225,0,0,0,0
-0.013370593162659105,-0.04126602423170987,-0.012111608774531225,0,0,0,0
0.002567021337340895,-0.05069581823170987,0.04104989572546878,0,0,0,0
0.002567021337340895,-0.05069581823170987,0.04104989572546878,0,0,0,0
0.13754140533734088,-0.0009715046317098717,-0.014884288674531225,0,0,0,0
0.13754140533734088,-0.0009715046317098717,-0.014884288674531225,0,0,0,0
0.004678265337340895,-0.014945849231709872,0.05035892972546878,0,0,0,0
0.004678265337340895,-0.014945849231709872,0.05035892972546878,0,0,0,0
-0.022515757662659105,0.02710155876829013,0.05533163972546878,0,0,0,0
0.05603381533734089,0.00987540676829013,-0.06023670027453122,0,0,0,0
0.1444350453373409,-0.016166094231709872,-0.11917814027453123,0,0,0,0
0.14541169533734088,-0.0008666422317098713,-0.023488040274531226,0,0,0,0
0.14541169533734088,-0.0008666422317098713,-0.023488040274531226,0,0,0,0
0.0341772253373409,-0.01092079823170987,0.034399499725468775,0,0,0,0
-0.0011451560626591054,-0.011657384231709872,0.05902376572546878,0,0,0,0
0.017550770337340895,0.012119038768290128,-0.008560524924531226,0,0,0,0
0.04595977533734089,0.01892199376829013,-0.05757800227453123,0,0,0,0
0.04595977533734089,0.01892199376829013,-0.05757800227453123,0,0,0,0
-0.023365576662659107,-0.04076598823170987,0.06859157572546877,0,0,0,0
-0.023365576662659107,-0.04076598823170987,0.06859157572546877,0,0,0,0
0.03897325233734089,0.015026301768290127,-0.08283624027453122,0,0,0,0
-0.04136026666265911,-0.07029740723170987,0.06370034972546877,0,0,0,0
0.04209548533734089,-0.013458326231709871,0.06361331972546877,0,0,0,0
0.04209548533734089,-0.013458326231709871,0.06361331972546877,0,0,0,0
0.022876660337340895,0.020163987768290127,-0.11009158027453123,0,0,0,0
0.022876660337340895,0.020163987768290127,-0.11009158027453123,0,0,0,0
-0.09448326466265912,0.019631956768290125,0.03187839572546878,0,0,0,0
-0.1857427446626591,0.044773090768290134,0.07416124972546877,0,0,0,0
-0.015444930162659104,-0.024577334231709873,0.04523781972546878,0,0,0,0
-0.015444930162659104,-0.024577334231709873,0.04523781972546878,0,0,0,0
0.1690161853373409,-0.014766397231709869,-0.030768846274531227,0,0,0,0
0.1690161853373409,-0.014766397231709869,-0.030768846274531227,0,0,0,0
0.022209469337340894,-0.01426324223170987,0.03546665972546877,0,0,0,0
-0.2793804446626591,0.08796572176829012,0.11301628972546876,0,0,0,0
-0.1492721446626591,0.035773790768290126,0.10223881972546876,0,0,0,0
0.08436633533734089,-0.07746064023170987,-0.17750610027453123,0,0,0,0
0.08436633533734089,-0.07746064023170987,-0.17750610027453123,0,0,0,0
0.24613496533734086,-0.060485070231709875,-0.015705834274531226,0,0,0,0
-0.011399443662659107,0.08796022576829013,0.05648740972546878,0,0,0,0
-0.011399443662659107,0.08796022576829013,0.05648740972546878,0,0,0,0
-0.24351213466265914,0.04087792376829013,-0.07456683627453123,0,0,0,0
-0.1245014046626591,-0.04242811123170987,0.053135409725468784,0,0,0,0
-0.1245014046626591,-0.04242811123170987,0.053135409725468784,0,0,0,0
-0.005341227662659105,-0.02726616423170987,0.027631436725468774,0,0,0,0
0.2029964653373409,-0.015518766231709872,0.025339291725468772,0,0,0,0
0.022796075337340894,0.11069111576829012,-0.15266562027453123,0,0,0,0
0.022796075337340894,0.11069111576829012,-0.15266562027453123,0,0,0,0
-0.03979728966265911,-0.004941519631709872,0.051967949725468775,0,0,0,0
-0.03979728966265911,-0.004941519631709872,0.051967949725468775,0,0,0,0
-0.1497136946626591,-0.11402893423170987,0.013084031725468775,0,0,0,0
0.0491352253373409,0.09899901576829014,0.028854371725468776,0,0,0,0
0.07010661533734089,0.040533960768290134,-0.16488986027453123,0,0,0,0
0.07010661533734089,0.040533960768290134,-0.16488986027453123,0,0,0,0
-0.10801933466265912,0.024678745768290128,0.08801190972546877,0,0,0,0
-0.10801933466265912,0.024678745768290128,0.08801190972546877,0,0,0,0
-0.10801933466265912,0.024678745768290128,0.08801190972546877,0,0,0,0
