acc_x,acc_y,acc_z,gyro_x,gyro_y,gyro_z,label
-0.0923986246626591,0.05521057876829013,-0.1519354402745312,0,0,0,0
-0.037375147662659106,-0.012271014231709872,0.060491909725468786,0,0,0,0
-0.052948934662659104,-0.05951049923170987,0.11185419972546876,0,0,0,0
0.0716872353373409,0.010554972768290129,0.061979169725468776,0,0,0,0
0.14357062533734088,0.03301715576829013,0.028109515725468773,0,0,0,0
0.14357062533734088,0.03301715576829013,0.028109515725468773,0,0,0,0
-0.09169777466265912,0.028238105768290132,-0.14518002027453125,0,0,0,0
-0.09169777466265912,0.028238105768290132,-0.14518002027453125,0,0,0,0
-0.08229120466265911,-0.04363923623170987,0.11331843972546876,0,0,0,0
-0.08229120466265911,-0.04363923623170987,0.11331843972546876,0,0,0,0
0.07224666533734089,-0.02803405423170987,0.07943866972546877,0,0,0,0
0.0557138603373409,0.14411980576829012,-0.0008203998745312255,0,0,0,0
0.0557138603373409,0.14411980576829012,-0.0008203998745312255,0,0,0,0
-0.027489169662659102,0.11979556576829012,0.06634215572546877,0,0,0,0
-0.10091293466265912,0.01691220476829013,0.06874828972546877,0,0,0,0
-0.061810474662659105,-0.09408652423170986,0.019326839725468774,0,0,0,0
0.03250085533734089,-0.03602382423170987,0.05173425472546878,0,0,0,0
0.08740426533734089,0.03512429976829013,0.04054837972546878,0,0,0,0
0.004664151337340894,-0.020911566231709873,-0.17327792027453123,0,0,0,0
-0.0019741851626591056,0.01758630476829013,0.06608643372546877,0,0,0,0
-0.0407831986626591,0.03661477276829013,0.08982263672546878,0,0,0,0
-0.0407831986626591,0.03661477276829013,0.08982263672546878,0,0,0,0
0.0282815153373409,-0.016858869231709872,-0.2538938402745312,0,0,0,0
0.0282815153373409,-0.016858869231709872,-0.2538938402745312,0,0,0,0
0.042507092337340895,0.011056317768290129,0.012325553725468775,0,0,0,0
-0.07606266466265911,0.016655452768290127,0.06645373972546878,0,0,0,0
-0.07584827466265912,0.0015910965282901286,0.049857823725468785,0,0,0,0
-0.07584827466265912,0.0015910965282901286,0.049857823725468785,0,0,0,0
0.14198552533734088,-0.007641865231709871,-0.06644333027453123,0,0,0,0
0.07671910933734089,-0.022463004231709875,-0.043413462274531224,0,0,0,0
-0.011098178062659106,-0.029917644231709867,0.008336953725468773,0,0,0,0
-0.011098178062659106,-0.029917644231709867,0.008336953725468773,0,0,0,0
-0.1756427646626591,0.01757756576829013,0.03356509672546878,0,0,0,0
-0.07312687466265912,0.004293253368290129,0.05672812272546877,0,0,0,0
0.0537254493373409,-0.027918901231709876,0.010421065725468772,0,0,0,0
0.09080774033734089,-0.051495214231709864,-0.10118416027453123,0,0,0,0
0.0995220353373409,-0.06850059023170987,-0.1325854802745312,0,0,0,0
-0.020022757662659103,0.04240919376829013,0.06347764972546877,0,0,0,0
-0.020022757662659103,0.04240919376829013,0.06347764972546877,0,0,0,0
-0.16506355466265912,0.12344031576829013,0.06110168572546878,0,0,0,0
0.09322873533734088,-0.00898565123170987,0.0038609727254687734,0,0,0,0
0.09322873533734088,-0.00898565123170987,0.0038609727254687734,0,0,0,0
0.09322873533734088,-0.00898565123170987,0.0038609727254687734,0,0,0,0
0.1383581353373409,-0.07827479423170987,-0.03612985027453122,0,0,0,0
-0.08715246466265911,0.02491103476829013,0.09426734972546877,0,0,0,0
-0.08715246466265911,0.02491103476829013,0.09426734972546877,0,0,0,0
0.07534629533734089,-0.03107505723170987,-0.17932638027453124,0,0,0,0
0.1517480053373409,-0.0013503642317098715,0.07808286372546877,0,0,0,0
-0.10820005466265911,0.11721364576829013,0.09981123972546878,0,0,0,0
-0.04190843866265911,-0.05023846023170987,-0.14489711027453123,0,0,0,0
-0.04190843866265911,-0.05023846023170987,-0.14489711027453123,0,0,0,0
0.06677972533734089,0.014108340768290128,0.04304609972546877,0,0,0,0
0.10974218533734088,0.0059139282682901285,0.03400155772546878,0,0,0,0
0.09308959533734089,-0.027460574231709868,-0.06412184427453123,0,0,0,0
-0.0364008746626591,-0.05902715423170987,-0.23930424027453123,0,0,0,0
-0.0364008746626591,-0.05902715423170987,-0.23930424027453123,0,0,0,0
-0.10922458466265912,0.022676438768290126,0.12346566972546877,0,0,0,0
0.13692914533734088,0.027584931768290126,0.06737827972546877,0,0,0,0
0.15124017533734088,-0.05537234423170987,-0.2544979402745312,0,0,0,0
0.009363858337340894,0.03354544576829013,0.06849109372546877,0,0,0,0
-0.0648120746626591,0.08041565576829013,0.07663102972546877,0,0,0,0
-0.0642819246626591,0.04943582176829013,0.09042393372546878,0,0,0,0
-0.015018256662659105,-0.03595067223170987,0.006054101725468774,0,0,0,0
0.024129883337340896,-0.10012050423170987,-0.15221578027453123,0,0,0,0
0.10368081533734089,-0.03965104223170987,-0.015464951274531225,0,0,0,0
0.07819806533734089,0.030284105768290125,0.011804274725468772,0,0,0,0
-0.037568648662659104,-0.011218905231709871,-0.1509740802745312,0,0,0,0
-0.037568648662659104,-0.011218905231709871,-0.1509740802745312,0,0,0,0
-0.021298583662659104,-0.024904289231709877,0.08042189372546878,0,0,0,0
-0.08101814466265911,-0.036515054231709865,0.07813839972546877,0,0,0,0
-0.034902461662659104,-0.027338000231709875,0.07209548972546878,0,0,0,0
-0.015551074162659106,0.02660717276829013,-0.2227502702745312,0,0,0,0
-0.015551074162659106,0.02660717276829013,-0.2227502702745312,0,0,0,0
0.018188206337340893,0.08971832576829013,0.047349229725468775,0,0,0,0
-0.0597874476626591,0.03797267376829013,0.03219403772546878,0,0,0,0
-0.028137762662659105,-0.04741922423170987,-0.13729038027453122,0,0,0,0
0.012221066337340894,-0.05030293423170987,0.043364659725468775,0,0,0,0
-0.03303058966265911,-0.01983043223170987,0.04901125972546878,0,0,0,0
-0.03303058966265911,-0.01983043223170987,0.04901125972546878,0,0,0,0
0.009302823337340893,-0.004783466231709871,0.06853358572546878,0,0,0,0
-0.009990294662659105,-0.012958413231709872,-0.018883295274531225,0,0,0,0
-0.009990294662659105,-0.012958413231709872,-0.018883295274531225,0,0,0,0
0.08937284133734089,-0.006563509231709872,0.028275815725468775,0,0,0,0
0.028889863337340893,-0.016459202231709873,-0.05648517727453122,0,0,0,0
0.028889863337340893,-0.016459202231709873,-0.05648517727453122,0,0,0,0
-0.09185522466265911,0.032913840768290126,0.05835372972546878,0,0,0,0
-0.09294594066265911,0.03200236876829013,0.06489792272546877,0,0,0,0
0.06146547033734089,-0.055405574231709866,-0.04526628427453123,0,0,0,0
-0.0410731146626591,-0.01675260623170987,-0.0014608636745312249,0,0,0,0
0.1121524053373409,-0.03500780723170987,-0.03166672727453122,0,0,0,0
-0.043524916662659105,-0.02953352623170987,-0.016662635274531226,0,0,0,0
-0.14861277466265913,0.021356761768290128,0.08144053672546878,0,0,0,0
-0.14861277466265913,0.021356761768290128,0.08144053672546878,0,0,0,0
0.13326741533734088,-0.024682900231709867,-0.12777551027453124,0,0,0,0
0.1041567053373409,-0.0036636959317098714,-0.06021215427453122,0,0,0,0
-0.008901961462659105,0.007786004768290129,0.05651856472546877,0,0,0,0
-0.008901961462659105,0.007786004768290129,0.05651856472546877,0,0,0,0
-0.09526432466265912,0.00870598476829013,0.03618380972546877,0,0,0,0
-0.1261366646626591,0.016613835768290126,0.012674806725468776,0,0,0,0
-0.036883147662659106,-0.031124037231709867,-0.025469161274531225,0,0,0,0
0.06617309533734089,-0.049668614231709866,-0.03781350427453122,0,0,0,0
0.02750016833734089,0.006832913768290129,0.013025169725468775,0,0,0,0
0.02750016833734089,0.006832913768290129,0.013025169725468775,0,0,0,0
0.012596432337340896,0.019160887768290127,0.03230445272546877,0,0,0,0
-0.005459387912659106,0.02183554576829013,-0.021165742274531225,0,0,0,0
0.043430725337340895,0.019894580768290128,-0.030782820274531227,0,0,0,0
0.05494071533734089,-0.006093233231709872,-0.07346297027453122,0,0,0,0
-0.029431326662659105,-0.007197922231709871,-0.08766574027453124,0,0,0,0
-0.11355141466265913,0.0027057793682901286,0.07258824572546876,0,0,0,0
-0.11772869466265912,-0.02057394323170987,0.08256147372546876,0,0,0,0
0.010778634337340897,-0.04773880823170987,0.06444918372546878,0,0,0,0
0.1991132853373409,0.008119826468290129,-0.14363313027453123,0,0,0,0
0.044722859337340895,0.053375875768290136,-0.04294859327453122,0,0,0,0
-0.10479124466265913,-0.020685122231709874,0.014910779725468774,0,0,0,0
-0.10479124466265913,-0.020685122231709874,0.014910779725468774,0,0,0,0
-0.08138120966265912,-0.023428809231709875,0.08591656972546877,0,0,0,0
0.0960812753373409,-0.04136013023170987,-0.21191533027453124,0,0,0,0
0.0960812753373409,-0.04136013023170987,-0.21191533027453124,0,0,0,0
0.0960812753373409,-0.04136013023170987,-0.21191533027453124,0,0,0,0
0.14078590533734087,-0.031218847231709868,-0.24947928027453126,0,0,0,0
-0.021631510662659104,0.014270106768290129,0.09463143972546878,0,0,0,0
-0.021631510662659104,0.014270106768290129,0.09463143972546878,0,0,0,0
-0.021631510662659104,0.014270106768290129,0.09463143972546878,0,0,0,0
-0.0635269006626591,0.04659183076829013,0.08370882972546877,0,0,0,0
0.08485585833734088,-0.0036888907317098717,-0.17834898027453122,0,0,0,0
0.08485585833734088,-0.0036888907317098717,-0.17834898027453122,0,0,0,0
0.040675655337340896,0.03720671576829013,0.03501786472546878,0,0,0,0
-0.07394474466265911,-0.043092739231709865,-0.053968294274531224,0,0,0,0
0.09220372833734089,0.02082911476829013,0.048614959725468775,0,0,0,0
0.09220372833734089,0.02082911476829013,0.048614959725468775,0,0,0,0
0.07212764533734088,-0.03495222023170987,-0.11144069027453124,0,0,0,0
-0.07308615066265911,0.05971267576829013,0.07447747472546877,0,0,0,0
-0.07308615066265911,0.05971267576829013,0.07447747472546877,0,0,0,0
0.0536612653373409,0.049825725768290134,0.06931731572546877,0,0,0,0
0.036945835337340895,0.04523199876829013,0.06621291972546876,0,0,0,0
-0.023498518662659104,0.0007753078682901286,-0.11223541027453122,0,0,0,0
-0.023498518662659104,0.0007753078682901286,-0.11223541027453122,0,0,0,0
0.027335183337340897,0.022485152768290127,0.045414229725468776,0,0,0,0
-0.049637587662659105,-0.02911866223170987,-0.05828095027453122,0,0,0,0
-0.048819048662659105,-0.06390721423170986,0.07422379972546878,0,0,0,0
-0.048819048662659105,-0.06390721423170986,0.07422379972546878,0,0,0,0
0.08918706533734089,0.02367962376829013,-0.10060870027453123,0,0,0,0
0.08918706533734089,0.02367962376829013,-0.10060870027453123,0,0,0,0
-0.05321672766265911,0.02782046576829013,0.010258392725468773,0,0,0,0
-0.05321672766265911,0.02782046576829013,0.010258392725468773,0,0,0,0
-0.08405435866265912,0.03567763576829013,0.04324448572546878,0,0,0,0
0.027455822337340896,0.03215577576829013,-0.035952970274531225,0,0,0,0
0.12580711533734087,-0.007753421631709872,-0.09280479727453123,0,0,0,0
0.1180657553373409,-0.0007485400317098715,-0.05304784327453122,0,0,0,0
-0.0595586616626591,0.021635782768290125,0.029277859725468775,0,0,0,0
-0.0595586616626591,0.021635782768290125,0.029277859725468775,0,0,0,0
-0.04208706166265911,0.006888735368290128,0.03235051472546878,0,0,0,0
0.008110253337340893,0.01998909776829013,0.054720579725468774,0,0,0,0
-0.030741104662659106,0.02085144276829013,0.045395289725468774,0,0,0,0
-0.14136150466265912,0.0025661376182901287,0.09529481972546877,0,0,0,0
-0.1382305946626591,0.005477495168290128,0.11597589972546876,0,0,0,0
-0.022630770662659103,0.01579743376829013,0.08044339972546877,0,0,0,0
0.11173583533734088,0.01673243376829013,-0.022539533274531225,0,0,0,0
-0.14765623466265912,0.029715892768290127,-0.04327668727453122,0,0,0,0
-0.09852731966265911,-0.00805082573170987,0.09261126972546876,0,0,0,0
-0.09852731966265911,-0.00805082573170987,0.09261126972546876,0,0,0,0
-0.0718150946626591,-0.004090603231709872,0.06278335972546877,0,0,0,0
