acc_x,acc_y,acc_z,gyro_x,gyro_y,gyro_z,label
0.008155648337340896,-0.04661004423170987,-0.003602139674531225,0,0,0,0
0.0540376853373409,-0.0016067619317098715,0.05001873972546878,0,0,0,0
0.09820357533734089,0.08096855576829012,0.06896847972546877,0,0,0,0
0.0569900653373409,0.06662333576829013,0.021486882725468774,0,0,0,0
0.048250309337340896,-0.02763929423170987,0.005222034725468777,0,0,0,0
0.05421039533734089,0.06990782576829013,-0.006121255474531226,0,0,0,0
0.041762272337340894,0.0032626514682901286,-0.024866813274531226,0,0,0,0
0.041762272337340894,0.0032626514682901286,-0.024866813274531226,0,0,0,0
-0.027356989662659106,-0.04682350723170987,-0.047598870274531226,0,0,0,0
-0.03563402466265911,-0.044066726231709874,-0.03705339327453123,0,0,0,0
0.0350926553373409,0.031992925768290124,-0.023482957274531226,0,0,0,0
0.0350926553373409,0.031992925768290124,-0.023482957274531226,0,0,0,0
0.07882253533734089,0.12454943576829013,-0.0018489256745312247,0,0,0,0
0.0420603913373409,-0.09642568423170987,-0.008370845074531225,0,0,0,0
-0.0406686626626591,-0.08848411423170986,-0.013213083274531225,0,0,0,0
-0.08606203466265912,0.00046936916829012866,-0.0032062442745312255,0,0,0,0
-0.08606203466265912,0.00046936916829012866,-0.0032062442745312255,0,0,0,0
-0.015081008062659104,0.06816062576829013,-0.0011348742745312251,0,0,0,0
0.08355027833734088,0.07351540576829013,-0.025536208274531225,0,0,0,0
0.08355027833734088,0.07351540576829013,-0.025536208274531225,0,0,0,0
0.1029171153373409,0.01902773676829013,-0.05083753027453122,0,0,0,0
-0.008289893262659106,-0.06577055423170987,-0.03221752627453123,0,0,0,0
-0.008289893262659106,-0.06577055423170987,-0.03221752627453123,0,0,0,0
-0.008289893262659106,-0.06577055423170987,-0.03221752627453123,0,0,0,0
0.029160229337340894,0.05910103976829013,-0.07410115027453122,0,0,0,0
0.04384299933734089,-0.006140142231709871,-0.05138259727453122,0,0,0,0
0.04384299933734089,-0.006140142231709871,-0.05138259727453122,0,0,0,0
-0.036726458662659105,-0.04737660823170987,-0.04151323627453122,0,0,0,0
-0.009668810962659105,-0.005030715231709872,-0.04303486527453122,0,0,0,0
-0.009668810962659105,-0.005030715231709872,-0.04303486527453122,0,0,0,0
0.031032769337340893,0.030754059768290126,-0.04379930327453122,0,0,0,0
0.0864504953373409,0.04430964976829013,-0.03923418627453122,0,0,0,0
0.0790168923373409,0.01705321676829013,-0.05108688627453122,0,0,0,0
0.04535714833734089,0.012691900768290128,-0.027717292274531225,0,0,0,0
0.055764691337340896,-0.01731461823170987,-0.024343022274531226,0,0,0,0
0.055764691337340896,-0.01731461823170987,-0.024343022274531226,0,0,0,0
0.0231743023373409,0.04914031576829013,-0.05416603027453122,0,0,0,0
0.0231743023373409,0.04914031576829013,-0.05416603027453122,0,0,0,0
-0.029882700662659106,0.04208200876829013,-0.05771010627453122,0,0,0,0
-0.035510428662659105,-0.014283674231709871,-0.0062990077245312255,0,0,0,0
-0.0011361914626591054,-0.04998428423170986,-0.0065734993745312255,0,0,0,0
0.15442468533734088,0.020538723768290128,-0.06978493027453123,0,0,0,0
0.15442468533734088,0.020538723768290128,-0.06978493027453123,0,0,0,0
0.0611697353373409,0.008535653768290128,-0.003933564574531225,0,0,0,0
-0.025852664662659106,-0.030994884231709874,-0.06453802027453122,0,0,0,0
-0.025852664662659106,-0.030994884231709874,-0.06453802027453122,0,0,0,0
-0.010685523162659107,-0.06843483423170986,-0.022083203274531227,0,0,0,0
0.016894452337340896,-0.02533043623170987,-0.015646390674531226,0,0,0,0
0.016894452337340896,-0.02533043623170987,-0.015646390674531226,0,0,0,0
0.08954221533734089,-0.04770376623170987,-0.025042988274531226,0,0,0,0
0.08960220033734088,-0.08589935823170987,-0.002753531974531225,0,0,0,0
0.016259209337340895,-0.04188154923170987,-0.026575080274531225,0,0,0,0
0.016259209337340895,-0.04188154923170987,-0.026575080274531225,0,0,0,0
0.10304013533734088,-0.0006053026317098713,-0.04189978427453123,0,0,0,0
0.10304013533734088,-0.0006053026317098713,-0.04189978427453123,0,0,0,0
-0.08855398466265911,-0.03392971723170987,-0.03202241527453122,0,0,0,0
-0.0833363346626591,-0.06860898423170987,-0.0024219319745312252,0,0,0,0
0.005354420337340894,-0.058795308231709864,-0.0053013459745312255,0,0,0,0
0.0856311953373409,-0.05833005823170987,-0.013909716974531226,0,0,0,0
0.0856311953373409,-0.05833005823170987,-0.013909716974531226,0,0,0,0
-0.06694296466265912,-0.04706038823170987,0.015429833725468772,0,0,0,0
0.029619423337340897,0.0013033692682901286,0.015489746725468774,0,0,0,0
0.15323716533734089,0.01713467276829013,-0.0013845232745312254,0,0,0,0
0.1295601053373409,-0.006667965231709871,-0.05125768627453122,0,0,0,0
0.07415706533734089,-0.07383338423170986,-0.019532291274531224,0,0,0,0
0.011241261337340894,-0.11579008423170987,0.011609163725468774,0,0,0,0
0.011241261337340894,-0.11579008423170987,0.011609163725468774,0,0,0,0
-0.07180259966265912,-0.05319725423170987,0.024708709725468774,0,0,0,0
0.025063912337340895,0.021871170768290128,-0.026596178274531226,0,0,0,0
0.2099310053373409,-0.05810071423170987,-0.031092267274531227,0,0,0,0
0.07623264033734088,-0.07710717823170987,-0.04236991527453122,0,0,0,0
-0.0640169946626591,-0.06725602123170986,0.020898796725468776,0,0,0,0
-0.057958300662659105,0.01299035576829013,0.040053812725468776,0,0,0,0
-0.057958300662659105,0.01299035576829013,0.040053812725468776,0,0,0,0
-0.057958300662659105,0.01299035576829013,0.040053812725468776,0,0,0,0
0.13339177533734087,-0.018673252231709868,-0.018848635274531227,0,0,0,0
0.12133275533734089,-0.1513140042317099,-0.007554151154531225,0,0,0,0
-0.029052718662659103,-0.07988398023170988,-0.005830512974531225,0,0,0,0
-0.029052718662659103,-0.07988398023170988,-0.005830512974531225,0,0,0,0
-0.029052718662659103,-0.07988398023170988,-0.005830512974531225,0,0,0,0
-0.029052718662659103,-0.07988398023170988,-0.005830512974531225,0,0,0,0
0.0322420283373409,0.060724195768290135,0.005533000725468774,0,0,0,0
0.09765979533734089,0.022649753768290128,-0.004350970774531226,0,0,0,0
0.0894375003373409,-0.12300134423170987,-0.03645110327453122,0,0,0,0
-0.010475142662659106,-0.06884103923170987,-0.023038135274531225,0,0,0,0
-0.0857616246626591,0.027093053768290125,-0.013296963274531226,0,0,0,0
-0.0857616246626591,0.027093053768290125,-0.013296963274531226,0,0,0,0
-0.0857616246626591,0.027093053768290125,-0.013296963274531226,0,0,0,0
0.021791951337340895,0.07645987576829012,8.262872546877572e-05,0,0,0,0
0.007620350337340894,-0.06864116423170986,-0.023216300274531226,0,0,0,0
-0.015188868662659106,-0.06908101423170987,-0.008060114124531226,0,0,0,0
-0.015188868662659106,-0.06908101423170987,-0.008060114124531226,0,0,0,0
0.032637993337340895,0.07000710576829013,0.018797675725468775,0,0,0,0
0.032637993337340895,0.07000710576829013,0.018797675725468775,0,0,0,0
0.025785367337340895,0.03032347576829013,-0.018622250874531225,0,0,0,0
0.025785367337340895,0.03032347576829013,-0.018622250874531225,0,0,0,0
-0.0642309986626591,-0.10911446423170987,0.040036569725468776,0,0,0,0
-0.0340551216626591,-0.05047022023170986,0.03944748472546877,0,0,0,0
0.06271411533734089,0.028948675768290126,0.03384513972546878,0,0,0,0
0.1423264653373409,0.08669558176829013,0.011673521725468775,0,0,0,0
0.04810535133734089,-0.04271866623170987,0.014106592725468773,0,0,0,0
0.04810535133734089,-0.04271866623170987,0.014106592725468773,0,0,0,0
0.04810535133734089,-0.04271866623170987,0.014106592725468773,0,0,0,0
-0.0516707246626591,-0.08333236423170987,0.025475837725468773,0,0,0,0
0.012344281337340893,-0.028936666231709873,0.009173051725468773,0,0,0,0
0.11730014533734087,0.022132218768290128,-0.008146683914531225,0,0,0,0
0.17684146533734088,0.030466687768290132,-0.018863304274531225,0,0,0,0
0.03139449733734089,-0.07787533423170988,-0.0015112474745312254,0,0,0,0
0.03139449733734089,-0.07787533423170988,-0.0015112474745312254,0,0,0,0
-0.03494289666265911,-0.0014874334317098717,0.030340929725468774,0,0,0,0
0.0568030513373409,0.04141065776829013,0.0009212987254687754,0,0,0,0
0.0568030513373409,0.04141065776829013,0.0009212987254687754,0,0,0,0
0.0568030513373409,0.04141065776829013,0.0009212987254687754,0,0,0,0
0.14124833533734088,0.034428483768290136,-0.03261459627453123,0,0,0,0
0.014416138337340897,-0.09819944423170987,0.022490624725468776,0,0,0,0
0.0322704473373409,-0.019006347231709873,-0.00042655027453122624,0,0,0,0
0.0856372053373409,0.11072016576829012,-0.03160909527453122,0,0,0,0
0.022126500337340895,0.11764894576829013,-0.025838168274531226,0,0,0,0
0.022126500337340895,0.11764894576829013,-0.025838168274531226,0,0,0,0
-0.0639393646626591,0.02698015576829013,-0.013592906274531226,0,0,0,0
-0.0639393646626591,0.02698015576829013,-0.013592906274531226,0,0,0,0
-0.06832197466265912,-0.09875909423170987,0.006056555725468774,0,0,0,0
0.018783490337340895,-0.03834983623170987,-0.026017506274531227,0,0,0,0
0.1803429753373409,0.10515884576829014,-0.04617170027453122,0,0,0,0
0.1548990453373409,0.10475292576829012,-0.04344829727453122,0,0,0,0
0.1548990453373409,0.10475292576829012,-0.04344829727453122,0,0,0,0
0.05629121533734089,0.011718553768290127,0.006195266725468774,0,0,0,0
0.05629121533734089,0.011718553768290127,0.006195266725468774,0,0,0,0
-0.18293307466265912,-0.10583862423170988,0.019598119725468776,0,0,0,0
-0.1602933746626591,-0.08066803423170986,0.02228639272546877,0,0,0,0
-0.012705977662659105,0.004769838268290128,0.05396297972546878,0,0,0,0
0.16645805533734087,0.03680500576829013,0.05643783972546878,0,0,0,0
0.16645805533734087,0.03680500576829013,0.05643783972546878,0,0,0,0
-0.031032259662659104,-0.08203461123170987,0.07632865972546878,0,0,0,0
-0.012864096662659107,0.02496735476829013,0.056613783725468776,0,0,0,0
-0.012864096662659107,0.02496735476829013,0.056613783725468776,0,0,0,0
-0.012864096662659107,0.02496735476829013,0.056613783725468776,0,0,0,0
0.1669048453373409,-0.058628684231709874,-0.05387447327453122,0,0,0,0
-0.032383997662659106,-0.10845578423170986,-0.03460541827453122,0,0,0,0
-0.1999867746626591,-0.01395440623170987,0.014596363725468773,0,0,0,0
-0.0822419006626591,0.06278782576829012,-0.0007430092745312252,0,0,0,0
-0.0822419006626591,0.06278782576829012,-0.0007430092745312252,0,0,0,0
0.25494786533734093,0.032683921768290124,-0.08127364627453124,0,0,0,0
0.25494786533734093,0.032683921768290124,-0.08127364627453124,0,0,0,0
0.2566469253373409,-0.03667924423170987,-0.08758495627453124,0,0,0,0
0.12311793533734089,-0.07284530923170987,-0.07115762027453124,0,0,0,0
-0.22183697466265911,0.08064356576829014,0.020811819725468774,0,0,0,0
-0.22183697466265911,0.08064356576829014,0.020811819725468774,0,0,0,0
-0.1430066946626591,0.09428466576829013,0.02430655772546877,0,0,0,0
-0.1430066946626591,0.09428466576829013,0.02430655772546877,0,0,0,0
0.018936364337340895,0.018998861768290125,-0.022460158274531225,0,0,0,0
0.1659269453373409,-0.07897472923170987,0.021564973725468776,0,0,0,0
0.003394238337340894,0.062010932768290124,0.07455720972546877,0,0,0,0
0.003394238337340894,0.062010932768290124,0.07455720972546877,0,0,0,0
-0.0849746546626591,0.10270513576829013,0.06353791972546877,0,0,0,0
-0.07554844466265911,0.008945668168290129,0.031761257725468776,0,0,0,0
0.11385041533734089,-0.00878785223170987,-0.03143181327453122,0,0,0,0
0.11385041533734089,-0.00878785223170987,-0.03143181327453122,0,0,0,0
0.0003715676373408942,0.07921350076829013,-0.003421579274531225,0,0,0,0
-0.08039682466265911,0.059305795768290134,0.001448537725468776,0,0,0,0
0.06368171533734088,-0.02301739423170987,-0.004953788274531225,0,0,0,0
0.14391862533734087,0.01560538476829013,-0.010286439974531224,0,0,0,0
-0.0651896316626591,-0.015834229231709872,0.03545964772546877,0,0,0,0
-0.0651896316626591,-0.015834229231709872,0.03545964772546877,0,0,0,0
-0.11167028466265912,-0.03897334923170987,0.03724536172546878,0,0,0,0
-0.11167028466265912,-0.03897334923170987,0.03724536172546878,0,0,0,0
0.038193145337340896,0.03966769876829013,0.005371673725468775,0,0,0,0
0.1825148753373409,0.04544455776829013,-0.03642000727453122,0,0,0,0
0.0504911583373409,0.022470218768290133,-0.014436079274531225,0,0,0,0
-0.018011172662659104,-0.03098851423170987,0.004020024725468775,0,0,0,0
0.05277177533734089,0.023394167768290126,-0.005787317474531225,0,0,0,0
0.05277177533734089,0.023394167768290126,-0.005787317474531225,0,0,0,0
0.11624509533734088,0.05116670776829013,-0.03943058427453122,0,0,0,0
0.0926416553373409,0.026716888768290127,-0.015467234274531226,0,0,0,0
0.0926416553373409,0.026716888768290127,-0.015467234274531226,0,0,0,0
-0.008932669662659105,-0.008479576831709872,-0.005594949474531225,0,0,0,0
-0.0662908396626591,-0.04897101423170987,0.04848220972546878,0,0,0,0
-0.0662908396626591,-0.04897101423170987,0.04848220972546878,0,0,0,0
0.0468965693373409,0.009000438768290129,0.02412219972546877,0,0,0,0
0.08567277533734088,0.004622602968290129,-0.022247456274531226,0,0,0,0
