acc_x,acc_y,acc_z,gyro_x,gyro_y,gyro_z,label
0.0966387953373409,-0.09859098423170988,-0.06833280027453122,0,0,0,0
0.004865662337340894,0.04272612076829013,0.015223030725468774,0,0,0,0
0.004865662337340894,0.04272612076829013,0.015223030725468774,0,0,0,0
0.004865662337340894,0.04272612076829013,0.015223030725468774,0,0,0,0
-0.1060090846626591,0.07048173576829013,0.019787214725468776,0,0,0,0
0.04874202533734089,-0.07009428423170987,-0.025488741274531226,0,0,0,0
0.1314399853373409,-0.09756039423170987,-0.06477856027453123,0,0,0,0
0.1314399853373409,-0.09756039423170987,-0.06477856027453123,0,0,0,0
0.1314399853373409,-0.09756039423170987,-0.06477856027453123,0,0,0,0
0.008930508337340895,0.04425160976829013,-0.05882572727453122,0,0,0,0
0.008930508337340895,0.04425160976829013,-0.05882572727453122,0,0,0,0
-0.09388788466265911,0.06401894176829014,0.06335075372546876,0,0,0,0
-0.10233238466265912,0.02321744276829013,0.08421777972546876,0,0,0,0
-0.024434073662659105,-0.05314902423170986,0.018860743725468775,0,0,0,0
0.1330703853373409,-0.07867410423170987,-0.027925737274531227,0,0,0,0
0.1330703853373409,-0.07867410423170987,-0.027925737274531227,0,0,0,0
0.014720742337340897,0.03735451576829013,-0.10044818627453123,0,0,0,0
-0.0607662996626591,-0.00560261523170987,0.11335344972546878,0,0,0,0
-0.0607662996626591,-0.00560261523170987,0.11335344972546878,0,0,0,0
-0.023224146662659106,-0.004643005231709871,0.027151314725468775,0,0,0,0
0.1541529853373409,0.01531052576829013,-0.020983536274531228,0,0,0,0
0.1541529853373409,0.01531052576829013,-0.020983536274531228,0,0,0,0
-0.05608347466265911,-0.04611571123170987,-0.06803113027453123,0,0,0,0
-0.0847375706626591,-0.06858797423170987,0.023090349725468775,0,0,0,0
-0.0862445646626591,-0.04062962223170987,0.12417446972546875,0,0,0,0
-0.0862445646626591,-0.04062962223170987,0.12417446972546875,0,0,0,0
-0.027866538662659104,0.07383171976829013,-0.06758215027453122,0,0,0,0
0.19319974533734088,0.06506958576829013,-0.0068981960745312255,0,0,0,0
-0.0023086386626591055,-0.01931035423170987,-0.07739306027453123,0,0,0,0
-0.0023086386626591055,-0.01931035423170987,-0.07739306027453123,0,0,0,0
-0.08728960466265911,-0.06316539423170987,-0.030579228274531224,0,0,0,0
-0.033577234662659106,-0.015499037231709872,0.09813791972546879,0,0,0,0
-0.033577234662659106,-0.015499037231709872,0.09813791972546879,0,0,0,0
0.1384169753373409,0.019105798768290126,-0.23578196027453122,0,0,0,0
0.1384169753373409,0.019105798768290126,-0.23578196027453122,0,0,0,0
0.1022307553373409,-0.03697548423170987,0.06545935972546876,0,0,0,0
0.1022307553373409,-0.03697548423170987,0.06545935972546876,0,0,0,0
-0.22191975466265912,-0.021599723231709868,0.04695677972546877,0,0,0,0
-0.19246748466265912,0.016146159768290126,0.03251295572546878,0,0,0,0
-0.06013086466265911,0.038517859768290134,0.04865744972546878,0,0,0,0
0.07835504233734089,0.01257698076829013,-0.07492077027453123,0,0,0,0
0.07835504233734089,0.01257698076829013,-0.07492077027453123,0,0,0,0
0.16214200533734088,-0.0015775966317098716,-0.029196651274531225,0,0,0,0
0.045564190337340896,-0.026439154231709873,-0.023247571274531226,0,0,0,0
0.045564190337340896,-0.026439154231709873,-0.023247571274531226,0,0,0,0
0.045564190337340896,-0.026439154231709873,-0.023247571274531226,0,0,0,0
0.026197640337340896,0.0019423645782901287,-0.03190615927453122,0,0,0,0
0.04837953533734089,-0.0063032227317098705,0.014022426725468773,0,0,0,0
0.0318441553373409,-0.046276336231709875,0.018709592725468776,0,0,0,0
0.008010308337340896,-0.055008160231709874,-0.010449405074531225,0,0,0,0
-0.0041724997926591055,0.03196644876829013,0.03173892372546878,0,0,0,0
-0.0041724997926591055,0.03196644876829013,0.03173892372546878,0,0,0,0
-0.13755281466265912,0.05258902576829013,-0.014548249274531227,0,0,0,0
0.040865055337340896,-0.06404220423170986,-0.051680703274531226,0,0,0,0
0.040865055337340896,-0.06404220423170986,-0.051680703274531226,0,0,0,0
0.040865055337340896,-0.06404220423170986,-0.051680703274531226,0,0,0,0
0.040865055337340896,-0.06404220423170986,-0.051680703274531226,0,0,0,0
0.002921120337340894,0.028714400768290127,0.004630498725468775,0,0,0,0
0.002921120337340894,0.028714400768290127,0.004630498725468775,0,0,0,0
0.002921120337340894,0.028714400768290127,0.004630498725468775,0,0,0,0
-0.007870753462659107,0.05900044576829013,0.005451278725468773,0,0,0,0
-0.008932383662659107,-0.04173991923170987,-0.04279679827453122,0,0,0,0
-0.008932383662659107,-0.04173991923170987,-0.04279679827453122,0,0,0,0
-0.0627351596626591,-0.03221650923170987,-0.007399435374531226,0,0,0,0
-0.09265955466265911,0.029831072768290133,0.020388689725468777,0,0,0,0
0.0626573723373409,0.04970259376829013,-0.004116745274531226,0,0,0,0
0.07898980533734089,-0.03159484223170987,-0.07550318027453123,0,0,0,0
0.025972001337340896,-0.04372770423170987,0.020133594725468777,0,0,0,0
-0.0477717246626591,-0.025172464231709872,0.06196946372546878,0,0,0,0
-0.07127502466265911,0.03051230376829013,0.053715084725468785,0,0,0,0
-0.07127502466265911,0.03051230376829013,0.053715084725468785,0,0,0,0
0.1406279753373409,-0.03642582823170987,-0.07107058027453123,0,0,0,0
0.09456788533734088,-0.05420312823170986,-0.12820035027453122,0,0,0,0
0.09456788533734088,-0.05420312823170986,-0.12820035027453122,0,0,0,0
0.005556408737340895,-0.04851397423170987,-0.05064761227453122,0,0,0,0
0.005556408737340895,-0.04851397423170987,-0.05064761227453122,0,0,0,0
-0.1440906346626591,0.059416419768290124,0.09616001972546875,0,0,0,0
-0.030508597662659103,0.07036398076829013,0.027698836725468776,0,0,0,0
-0.030508597662659103,0.07036398076829013,0.027698836725468776,0,0,0,0
0.15087176533734087,-0.02410030623170987,-0.061663110274531224,0,0,0,0
0.15087176533734087,-0.02410030623170987,-0.061663110274531224,0,0,0,0
-0.17981317466265911,-0.021716275231709874,0.04485717972546877,0,0,0,0
-0.2535570446626591,-0.004831601231709871,0.057339875725468774,0,0,0,0
-0.07009571466265911,-0.04271765023170987,-0.036130436274531226,0,0,0,0
0.10396367533734088,-0.04057906223170987,-0.04641416827453122,0,0,0,0
0.1303207553373409,0.005875670968290128,-0.04321520027453122,0,0,0,0
0.1303207553373409,0.005875670968290128,-0.04321520027453122,0,0,0,0
-0.09367588466265911,0.033680647768290134,0.05864827972546877,0,0,0,0
-0.09367588466265911,0.033680647768290134,0.05864827972546877,0,0,0,0
-0.10793369466265912,0.03715279576829013,0.026712684725468772,0,0,0,0
0.034637085337340896,-0.0017159242317098715,-0.035934384274531224,0,0,0,0
0.034637085337340896,-0.0017159242317098715,-0.035934384274531224,0,0,0,0
0.05214454533734089,-0.04038096623170987,0.017435269725468775,0,0,0,0
-0.050794584662659105,-0.019318362231709872,0.06153043972546877,0,0,0,0
-0.06613586466265911,-0.012017654231709873,0.03972788272546878,0,0,0,0
-0.06613586466265911,-0.012017654231709873,0.03972788272546878,0,0,0,0
0.07735568533734088,-0.014424717231709872,0.020433811725468775,0,0,0,0
0.0718262853373409,0.013498771768290127,-0.007987399444531225,0,0,0,0
-0.023550112662659106,0.04371776376829013,0.007292656725468776,0,0,0,0
-0.0037508803726591057,-0.015957594231709872,-0.026288481274531227,0,0,0,0
-0.0037508803726591057,-0.015957594231709872,-0.026288481274531227,0,0,0,0
0.0561658053373409,-0.004808571231709871,0.0026598377254687744,0,0,0,0
0.0561658053373409,-0.004808571231709871,0.0026598377254687744,0,0,0,0
-0.021269019662659105,0.00810272876829013,0.05086027972546878,0,0,0,0
-0.021269019662659105,0.00810272876829013,0.05086027972546878,0,0,0,0
0.006137864337340894,-0.02042214523170987,0.038357941725468775,0,0,0,0
0.017353265337340898,-0.05759875723170987,-0.021665568274531227,0,0,0,0
0.024882142337340898,-0.03230351723170987,-0.015662641874531227,0,0,0,0
0.021486393337340894,0.01234095076829013,0.027220461725468773,0,0,0,0
0.021486393337340894,0.01234095076829013,0.027220461725468773,0,0,0,0
0.06594278033734088,-0.0030001772317098715,-0.022668130274531226,0,0,0,0
0.06594278033734088,-0.0030001772317098715,-0.022668130274531226,0,0,0,0
0.10516387533734088,-0.041539752231709866,-0.04545198227453122,0,0,0,0
-0.0541071746626591,0.053117549768290126,0.06960414472546878,0,0,0,0
0.041604630337340895,-0.04508517023170987,-0.05106905227453122,0,0,0,0
0.1087095453373409,-0.035932287231709874,-0.041233535274531226,0,0,0,0
-0.10902698466265912,0.05671125076829013,-0.028473134274531225,0,0,0,0
-0.1368484346626591,0.032310645768290125,0.05753668972546878,0,0,0,0
0.12107316533734089,-0.05480161823170987,-0.027867098274531227,0,0,0,0
0.12107316533734089,-0.05480161823170987,-0.027867098274531227,0,0,0,0
0.08004457133734089,-0.04617246623170987,-0.14518743027453124,0,0,0,0
-0.15858009466265913,0.03529275976829013,0.11084916972546878,0,0,0,0
0.1617755053373409,0.04627861376829013,-0.13206251027453123,0,0,0,0
-0.1786369646626591,0.06390089576829013,0.04208397672546878,0,0,0,0
-0.1928751746626591,0.0020185570182901288,0.08592889972546877,0,0,0,0
-0.1928751746626591,0.0020185570182901288,0.08592889972546877,0,0,0,0
0.1293257853373409,-0.061311000231709864,-0.14948284027453124,0,0,0,0
0.05852348033734089,0.04987605276829013,0.10024507972546878,0,0,0,0
0.05852348033734089,0.04987605276829013,0.10024507972546878,0,0,0,0
0.10208045533734089,-0.01890417023170987,0.008458069725468774,0,0,0,0
0.0866779483373409,0.01008922676829013,-0.10622459027453122,0,0,0,0
0.004421536337340894,0.06607660576829012,0.03663084972546878,0,0,0,0
-0.1987338346626591,0.027977435768290128,0.07386102972546878,0,0,0,0
-0.1619142346626591,0.03405701876829013,0.1443050997254688,0,0,0,0
-0.07425201466265911,0.027341652768290127,0.02301611172546877,0,0,0,0
0.04460250533734089,-0.018946169231709872,-0.21598075027453123,0,0,0,0
0.18692781533734087,-0.05703312123170987,-0.09849675427453122,0,0,0,0
-0.017308409662659105,0.08409560576829013,0.005265764725468775,0,0,0,0
-0.0004375296626591054,0.07653507576829012,-0.046231040274531225,0,0,0,0
0.06181489533734089,-0.13301897423170989,0.028290139725468778,0,0,0,0
-0.0737886246626591,-0.09963693423170987,0.08093053572546877,0,0,0,0
0.07975122133734089,0.05296241576829014,-0.08844864027453123,0,0,0,0
-0.22366574466265912,-0.009091451231709872,0.015292362725468772,0,0,0,0
-0.1570350446626591,0.01950333176829013,0.11047946972546877,0,0,0,0
-0.010753424662659106,0.023670533768290127,0.07198734972546877,0,0,0,0
