acc_x,acc_y,acc_z,gyro_x,gyro_y,gyro_z,label
-0.028518564662659104,-0.028582154231709872,0.02668526572546877,0,0,0,0
-0.028518564662659104,-0.028582154231709872,0.02668526572546877,0,0,0,0
-0.030437357662659103,-0.02990533623170987,0.011907212725468776,0,0,0,0
0.0547525553373409,-0.010185092231709872,-0.08515305027453123,0,0,0,0
0.017757145337340893,-0.012478756231709872,0.027651249725468775,0,0,0,0
-0.025359423662659104,-0.039564150231709866,-0.002427072874531225,0,0,0,0
-0.0573315446626591,-0.05164148723170987,0.004959694725468777,0,0,0,0
-0.05452326166265911,-0.05534078423170988,0.015672938725468776,0,0,0,0
-0.05452326166265911,-0.05534078423170988,0.015672938725468776,0,0,0,0
-0.05452326166265911,-0.05534078423170988,0.015672938725468776,0,0,0,0
0.003969876337340895,-0.005746286631709872,-0.007816894394531225,0,0,0,0
0.022404305337340898,-0.021752106231709874,-0.045534403274531225,0,0,0,0
0.0573870823373409,-0.04681578823170987,-0.05610103027453122,0,0,0,0
0.0573870823373409,-0.04681578823170987,-0.05610103027453122,0,0,0,0
-0.1183712746626591,-0.05686523823170987,0.02782585472546877,0,0,0,0
-0.1183712746626591,-0.05686523823170987,0.02782585472546877,0,0,0,0
-0.1183712746626591,-0.05686523823170987,0.02782585472546877,0,0,0,0
-0.1183712746626591,-0.05686523823170987,0.02782585472546877,0,0,0,0
-0.006328375962659106,-0.05769894123170987,0.03221963472546878,0,0,0,0
0.060647122337340896,-0.050613754231709863,-0.016296787274531224,0,0,0,0
-0.016110118062659107,-0.06680986423170987,-0.019570870774531225,0,0,0,0
-0.06865690466265911,-0.057007284231709865,0.021476535725468773,0,0,0,0
-0.04125078466265911,-0.039784054231709866,0.033421884725468774,0,0,0,0
0.034611432337340896,-0.03164464823170987,0.04620654472546878,0,0,0,0
0.034611432337340896,-0.03164464823170987,0.04620654472546878,0,0,0,0
0.034611432337340896,-0.03164464823170987,0.04620654472546878,0,0,0,0
-0.032371027662659105,-0.05030620023170987,0.002829353725468776,0,0,0,0
-0.032371027662659105,-0.05030620023170987,0.002829353725468776,0,0,0,0
0.0307665033373409,-0.03160936223170987,0.01834233272546877,0,0,0,0
0.07163545533734089,-0.016176610231709874,-0.03209834827453122,0,0,0,0
0.033625905337340896,-0.03700737423170987,-0.03875815427453123,0,0,0,0
-0.10476768466265911,-0.046851164231709874,0.07304586572546877,0,0,0,0
-0.09108455966265912,-0.05820359423170987,0.05485752672546878,0,0,0,0
0.09064161033734089,-0.04161922423170987,-0.08101697727453123,0,0,0,0
0.1106736353373409,-0.05515361423170987,-0.019225473774531224,0,0,0,0
0.0598668253373409,-0.03418292423170987,-0.002367742274531225,0,0,0,0
-0.07770078966265911,-0.06335768023170987,-0.03457450427453122,0,0,0,0
-0.06002691466265911,-0.08197165123170987,0.08896344972546877,0,0,0,0
-0.06002691466265911,-0.08197165123170987,0.08896344972546877,0,0,0,0
-0.031126387662659103,-0.04421980923170987,-0.04796758427453122,0,0,0,0
0.0422103093373409,-0.01975204323170987,-0.040238280274531225,0,0,0,0
0.0422103093373409,-0.01975204323170987,-0.040238280274531225,0,0,0,0
0.0518507153373409,-0.010232204231709873,-0.016291995274531224,0,0,0,0
0.021089379337340897,-0.08954849823170988,0.016656212725468772,0,0,0,0
0.0276009723373409,-0.09971970423170988,0.07988482572546876,0,0,0,0
-0.09726255466265911,0.03444198976829013,-0.018605001274531227,0,0,0,0
-0.09726255466265911,0.03444198976829013,-0.018605001274531227,0,0,0,0
-0.05563104966265911,-0.02951541423170987,-0.017905850774531225,0,0,0,0
-0.05563104966265911,-0.02951541423170987,-0.017905850774531225,0,0,0,0
-0.05563104966265911,-0.02951541423170987,-0.017905850774531225,0,0,0,0
0.0516935513373409,-0.04878209423170987,0.019448367725468773,0,0,0,0
-0.0648232296626591,0.02363801576829013,-0.004520006474531225,0,0,0,0
-0.10380037466265911,0.010250455768290128,0.08685389972546878,0,0,0,0
-0.10380037466265911,0.010250455768290128,0.08685389972546878,0,0,0,0
-0.10380037466265911,0.010250455768290128,0.08685389972546878,0,0,0,0
-0.020682223662659104,-0.022797077231709872,-0.008701927974531225,0,0,0,0
0.061729545337340895,-0.026439362231709874,-0.005633635874531225,0,0,0,0
0.06625463233734089,-0.04563329723170987,-0.04046975027453122,0,0,0,0
0.028656403337340895,-0.04236690423170987,0.022255067725468772,0,0,0,0
-0.08808334466265912,0.03003285576829013,-0.018860490674531227,0,0,0,0
0.006218449337340895,0.04864884576829013,0.031055091725468772,0,0,0,0
0.006218449337340895,0.04864884576829013,0.031055091725468772,0,0,0,0
0.006218449337340895,0.04864884576829013,0.031055091725468772,0,0,0,0
0.07197963533734089,0.03435921076829013,0.039663349725468776,0,0,0,0
0.058600635337340896,-0.04521624423170987,-0.05985214027453122,0,0,0,0
-0.042508014662659105,-0.02804992723170987,0.06896875972546877,0,0,0,0
-0.042508014662659105,-0.02804992723170987,0.06896875972546877,0,0,0,0
-0.1101651946626591,0.01055228176829013,0.03809138972546878,0,0,0,0
-0.0798439846626591,0.015267068768290128,-0.021455021274531225,0,0,0,0
-0.014014800162659106,0.004611760768290129,-0.03166995827453122,0,0,0,0
-0.014014800162659106,0.004611760768290129,-0.03166995827453122,0,0,0,0
-0.014014800162659106,0.004611760768290129,-0.03166995827453122,0,0,0,0
0.07783538533734088,-0.03663625123170987,0.019814161725468776,0,0,0,0
0.021357457337340898,-0.01690668423170987,0.035197249725468775,0,0,0,0
-0.0655472596626591,0.0056309644682901285,0.009083620725468776,0,0,0,0
-0.0655472596626591,0.0056309644682901285,0.009083620725468776,0,0,0,0
-0.0576454006626591,0.005373448568290129,-0.019860442274531227,0,0,0,0
-0.0043217498226591055,-0.0015631969317098714,-0.0016479090745312253,0,0,0,0
0.003594033337340894,0.007437545468290129,-0.002146966774531225,0,0,0,0
0.017042462337340896,-0.004046684231709872,-0.08383939027453123,0,0,0,0
0.003578488337340895,-0.03828343723170987,0.021221987725468777,0,0,0,0
0.003578488337340895,-0.03828343723170987,0.021221987725468777,0,0,0,0
-0.1294061546626591,-0.005641346731709872,0.02682011572546877,0,0,0,0
-0.04037359466265911,-0.006808513231709872,-0.018314559774531225,0,0,0,0
0.06985542033734089,0.04203720776829013,-0.017615826274531225,0,0,0,0
0.06985542033734089,0.04203720776829013,-0.017615826274531225,0,0,0,0
0.06946613033734089,0.0007114474682901287,-0.0019736602745312254,0,0,0,0
0.06946613033734089,0.0007114474682901287,-0.0019736602745312254,0,0,0,0
-0.1341689946626591,0.017548567768290127,0.03603154972546878,0,0,0,0
-0.09769686066265912,0.02607639476829013,0.04936559672546878,0,0,0,0
0.017592255337340896,0.024050241768290133,0.06486009972546877,0,0,0,0
0.056936471337340894,0.054624009768290134,-0.002629490274531225,0,0,0,0
0.08156892533734089,0.060835345768290125,-0.07451938027453123,0,0,0,0
0.07597619533734089,0.010315579768290128,0.03503762372546878,0,0,0,0
0.07597619533734089,0.010315579768290128,0.03503762372546878,0,0,0,0
-0.052831634662659104,0.01882701576829013,-0.006241960874531225,0,0,0,0
-0.07162416466265911,0.02985057276829013,0.10283917972546877,0,0,0,0
0.027806775337340897,0.03392512276829013,-0.04722431427453123,0,0,0,0
0.027806775337340897,0.03392512276829013,-0.04722431427453123,0,0,0,0
0.08874370533734088,0.03616988576829013,-0.07456468027453123,0,0,0,0
0.011712758337340895,0.03658741776829013,-0.059822686274531224,0,0,0,0
-0.0522505596626591,0.01780897976829013,-0.0016830399745312247,0,0,0,0
-0.0522505596626591,0.01780897976829013,-0.0016830399745312247,0,0,0,0
-0.0702302746626591,0.0013501231682901287,0.10729971972546878,0,0,0,0
-0.0702302746626591,0.0013501231682901287,0.10729971972546878,0,0,0,0
0.09272948933734089,0.007075041968290128,-0.11070808027453125,0,0,0,0
0.09272948933734089,0.007075041968290128,-0.11070808027453125,0,0,0,0
-0.1222762946626591,-0.03241863823170987,0.12265119972546878,0,0,0,0
-0.1222762946626591,-0.03241863823170987,0.12265119972546878,0,0,0,0
-0.1222762946626591,-0.03241863823170987,0.12265119972546878,0,0,0,0
-0.07566297866265911,-0.019080406231709875,0.06094316972546878,0,0,0,0
-0.07566297866265911,-0.019080406231709875,0.06094316972546878,0,0,0,0
0.17394668533734087,0.03402326776829013,-0.03963178027453122,0,0,0,0
0.11059905533734089,0.031035423768290125,-0.012351436974531225,0,0,0,0
0.11059905533734089,0.031035423768290125,-0.012351436974531225,0,0,0,0
0.009424893337340895,0.015413195768290129,-0.08197275027453123,0,0,0,0
-0.018492968662659107,0.014611167168290128,0.06508268572546877,0,0,0,0
-0.0391236146626591,0.010596472768290129,0.005207244725468776,0,0,0,0
0.06600877533734088,0.03405818376829013,0.003440348725468774,0,0,0,0
0.0773982213373409,0.017091912768290127,0.026770667725468777,0,0,0,0
0.0773982213373409,0.017091912768290127,0.026770667725468777,0,0,0,0
0.011034218337340897,0.02373793176829013,0.0015368627254687744,0,0,0,0
0.024323002337340895,0.040847593768290134,0.039860622725468774,0,0,0,0
0.0019644898373408944,0.045235717768290135,-0.028399022274531227,0,0,0,0
0.07952062533734089,0.013235801768290128,-0.07023243427453123,0,0,0,0
0.07952062533734089,0.013235801768290128,-0.07023243427453123,0,0,0,0
0.07952062533734089,0.013235801768290128,-0.07023243427453123,0,0,0,0
0.07952062533734089,0.013235801768290128,-0.07023243427453123,0,0,0,0
-0.0622874096626591,0.007681173568290129,-0.007792349200531225,0,0,0,0
-0.0622874096626591,0.007681173568290129,-0.007792349200531225,0,0,0,0
0.0560040653373409,0.007975858768290128,-0.05972577027453122,0,0,0,0
0.0560040653373409,0.007975858768290128,-0.05972577027453122,0,0,0,0
0.015706841337340894,0.015367114768290129,-0.015584845874531225,0,0,0,0
-0.04008510866265911,0.02243544576829013,0.04261378472546878,0,0,0,0
-0.04008510866265911,0.02243544576829013,0.04261378472546878,0,0,0,0
-0.0788244086626591,0.018995022768290126,0.012254135725468775,0,0,0,0
-0.049875434662659104,0.03203986376829013,0.025317959725468773,0,0,0,0
-0.035232241662659106,0.019171208768290128,-0.08897518627453123,0,0,0,0
-0.035232241662659106,0.019171208768290128,-0.08897518627453123,0,0,0,0
-0.036507399662659104,0.02763859076829013,0.062006759725468784,0,0,0,0
0.0693040053373409,0.03337435176829013,-0.026298661274531225,0,0,0,0
0.0693040053373409,0.03337435176829013,-0.026298661274531225,0,0,0,0
0.0027557533373408945,0.06046859076829013,0.004274467725468775,0,0,0,0
-0.1047051246626591,0.08468173176829014,0.010353676725468774,0,0,0,0
-0.1047051246626591,0.08468173176829014,0.010353676725468774,0,0,0,0
-0.1485227446626591,0.09304699976829013,-0.002037365774531225,0,0,0,0
-0.016456301662659104,0.05423985576829013,0.0047422572254687744,0,0,0,0
0.08068496533734089,-0.03170835423170987,-0.04219573327453122,0,0,0,0
0.1284282853373409,-0.09821615423170987,0.05765820572546878,0,0,0,0
0.0422218483373409,-0.06441419423170987,0.040587536725468776,0,0,0,0
-0.06317985866265911,0.01121246876829013,0.005780129725468776,0,0,0,0
-0.0700733976626591,0.08651917576829013,-0.034589346274531224,0,0,0,0
0.023640553337340893,0.06940241576829013,-0.013925905574531225,0,0,0,0
0.023640553337340893,0.06940241576829013,-0.013925905574531225,0,0,0,0
0.06870118533734089,0.013134205768290129,-0.041494650274531225,0,0,0,0
0.08706733533734089,0.0028409187682901286,0.02676061972546877,0,0,0,0
-0.1336294946626591,0.051440525768290134,0.027346424725468773,0,0,0,0
-0.027074892662659104,0.01806596576829013,0.0033047482254687744,0,0,0,0
0.0823420683373409,0.007781738468290129,-0.051359148274531224,0,0,0,0
0.12121564533734089,-0.009255903231709871,-0.09754451027453123,0,0,0,0
0.07173911533734088,-0.02485114923170987,-0.07683601027453123,0,0,0,0
-0.1414044246626591,-0.0032417292317098714,0.05605415972546877,0,0,0,0
-0.1414044246626591,-0.0032417292317098714,0.05605415972546877,0,0,0,0
-0.16180342466265912,0.017966914768290126,0.07655393372546877,0,0,0,0
-0.16180342466265912,0.017966914768290126,0.07655393372546877,0,0,0,0
-0.05941761466265911,0.04103200576829013,0.10767270972546877,0,0,0,0
0.13395177533734087,0.0068180327682901285,-0.10835618027453123,0,0,0,0
0.13395177533734087,0.0068180327682901285,-0.10835618027453123,0,0,0,0
0.12668840533734088,0.00836553026829013,-0.08532789527453123,0,0,0,0
0.12668840533734088,0.00836553026829013,-0.08532789527453123,0,0,0,0
0.08157588533734089,0.01788502376829013,0.012371735725468774,0,0,0,0
-0.12247446466265913,0.012471884768290128,0.023848060725468776,0,0,0,0
-0.1714187446626591,0.015294391768290129,0.022795752725468774,0,0,0,0
-0.1714187446626591,0.015294391768290129,0.022795752725468774,0,0,0,0
-0.10315388066265911,-0.011175536231709872,0.05439078672546877,0,0,0,0
0.1591370753373409,0.05180032876829013,-0.1460797002745312,0,0,0,0
