acc_x,acc_y,acc_z,gyro_x,gyro_y,gyro_z,label
-0.010899623062659104,0.04158297576829013,-0.0025033548745312254,0,0,0,0
0.0970450553373409,-0.012092533231709873,-0.019960971274531225,0,0,0,0
0.11643468533734089,-0.009837942831709872,-0.030498440274531226,0,0,0,0
0.014415852337340895,0.021621346768290133,0.009404520725468775,0,0,0,0
0.014415852337340895,0.021621346768290133,0.009404520725468775,0,0,0,0
-0.07089365466265911,0.08664096076829013,0.046720579725468774,0,0,0,0
0.08284351033734089,-0.01928484123170987,-0.04699289327453122,0,0,0,0
-0.033492072662659106,0.0018702928682901286,-0.005452437774531225,0,0,0,0
-0.033492072662659106,0.0018702928682901286,-0.005452437774531225,0,0,0,0
-0.033492072662659106,0.0018702928682901286,-0.005452437774531225,0,0,0,0
-0.033565791662659106,0.0011995260682901286,-0.005730207274531225,0,0,0,0
-0.07559583966265912,0.07257023576829014,0.04925166972546878,0,0,0,0
-0.019626887662659104,0.04221843576829013,0.012498979725468772,0,0,0,0
0.15317079533734088,-0.027011462231709867,-0.009515567174531225,0,0,0,0
0.15317079533734088,-0.027011462231709867,-0.009515567174531225,0,0,0,0
0.1009323253373409,-0.012694996231709872,-0.005141301474531225,0,0,0,0
-0.10133941966265911,0.04971151076829013,0.007991961725468774,0,0,0,0
0.07343579933734089,-0.002767070631709872,-0.008274860724531225,0,0,0,0
0.07343579933734089,-0.002767070631709872,-0.008274860724531225,0,0,0,0
0.1206270353373409,-0.024633186231709875,-0.031198115274531226,0,0,0,0
-0.06793134966265911,0.006482202268290129,0.009754185725468774,0,0,0,0
-0.12431000466265911,0.04223030276829013,0.04116329372546878,0,0,0,0
0.0342418833373409,0.058323855768290134,0.0010554957254687745,0,0,0,0
-0.09516876466265911,0.09000839076829013,0.027890389725468773,0,0,0,0
0.16869727533734089,-0.028445642231709874,-0.021748514274531228,0,0,0,0
-0.0963167986626591,0.04353226576829013,-0.015172107274531225,0,0,0,0
-0.16093004466265912,0.07646437576829014,0.025508741725468773,0,0,0,0
-0.10025919466265912,0.07994000576829013,0.021801881725468774,0,0,0,0
0.030850331337340893,0.03723854576829013,0.005388979725468775,0,0,0,0
0.13328639533734088,-0.060222619231709865,-0.04091205027453122,0,0,0,0
0.13328639533734088,-0.060222619231709865,-0.04091205027453122,0,0,0,0
0.034286133337340895,-0.07885180023170987,-0.019318933874531225,0,0,0,0
-0.1367725246626591,0.08018769576829013,0.015353552725468771,0,0,0,0
-0.022077544662659106,0.058422345768290126,0.0031052517254687743,0,0,0,0
0.06518069933734089,-0.008867025231709872,-0.004766102174531226,0,0,0,0
0.06518069933734089,-0.008867025231709872,-0.004766102174531226,0,0,0,0
0.0762488553373409,-0.027367609231709868,-0.018080623274531225,0,0,0,0
0.023039165337340895,-0.010333238231709873,-0.012288840274531226,0,0,0,0
-0.13846557466265913,0.03058034276829013,0.009538964725468776,0,0,0,0
-0.13846557466265913,0.03058034276829013,0.009538964725468776,0,0,0,0
-0.0682079146626591,0.01973813376829013,0.012735704725468776,0,0,0,0
0.08158656533734089,-0.027344464231709872,0.002443508725468775,0,0,0,0
0.05879918533734089,-0.06960899423170987,0.0010494872254687747,0,0,0,0
0.05879918533734089,-0.06960899423170987,0.0010494872254687747,0,0,0,0
-0.060305104662659106,-0.018484513231709875,0.03478001772546878,0,0,0,0
-0.060305104662659106,-0.018484513231709875,0.03478001772546878,0,0,0,0
-0.10260999966265912,0.04881695876829013,0.027108469725468775,0,0,0,0
0.0251478353373409,-0.03837436423170987,0.001918308725468775,0,0,0,0
0.1336297253373409,-0.08239327023170988,-0.03172272027453123,0,0,0,0
0.11541930533734088,-0.06085726423170987,-0.025754697274531228,0,0,0,0
-0.011128695662659106,-0.01304705723170987,-0.0036302522745312255,0,0,0,0
-0.011128695662659106,-0.01304705723170987,-0.0036302522745312255,0,0,0,0
-0.08868797466265911,0.05100859576829013,0.0033314627254687748,0,0,0,0
-0.006711276162659105,0.009322655768290129,-0.0023233249745312256,0,0,0,0
-0.006711276162659105,0.009322655768290129,-0.0023233249745312256,0,0,0,0
0.09826013533734088,-0.10681678423170987,-0.010144288874531225,0,0,0,0
-0.017114814662659104,-0.061435504231709875,0.005601457725468773,0,0,0,0
-0.017114814662659104,-0.061435504231709875,0.005601457725468773,0,0,0,0
-0.1300854546626591,0.02765083576829013,0.014173225725468776,0,0,0,0
-0.0950297196626591,0.06757049576829012,0.04086641472546878,0,0,0,0
0.10343133533734088,-0.03431278123170987,-0.03525874027453123,0,0,0,0
0.10343133533734088,-0.03431278123170987,-0.03525874027453123,0,0,0,0
-0.1274509246626591,-0.016702714231709874,-0.017091496274531225,0,0,0,0
-0.1274509246626591,-0.016702714231709874,-0.017091496274531225,0,0,0,0
-0.07690676066265911,0.04922872576829013,0.057205969725468785,0,0,0,0
0.11084653533734087,0.02629202576829013,0.05019794972546878,0,0,0,0
0.1755297853373409,-0.03917585423170987,-0.015699227274531227,0,0,0,0
-0.008259471062659104,-0.02484580823170987,0.010431759725468774,0,0,0,0
-0.1354183046626591,0.04221568776829013,0.01924237472546877,0,0,0,0
0.020525853337340895,0.03817182276829013,0.008069304725468775,0,0,0,0
0.020525853337340895,0.03817182276829013,0.008069304725468775,0,0,0,0
0.18339063533734087,-0.04671314623170987,-0.022249324274531225,0,0,0,0
0.09446965833734089,-0.08114902923170987,-0.021081860274531225,0,0,0,0
0.09446965833734089,-0.08114902923170987,-0.021081860274531225,0,0,0,0
-0.07241438466265912,0.024255816768290132,0.052597539725468774,0,0,0,0
0.1329573753373409,-0.031406771231709874,-0.023190053274531226,0,0,0,0
0.1329573753373409,-0.031406771231709874,-0.023190053274531226,0,0,0,0
0.1883661453373409,-0.09637281423170987,-0.04023832827453123,0,0,0,0
0.1075935553373409,-0.06841407923170988,-0.07546479027453123,0,0,0,0
0.0004882019373408939,0.0007556681682901285,-0.03168028127453122,0,0,0,0
0.0004882019373408939,0.0007556681682901285,-0.03168028127453122,0,0,0,0
-0.0599483346626591,-0.0033671972317098715,-0.006214363874531226,0,0,0,0
0.07374345533734089,-0.007197922231709871,-0.019297965274531224,0,0,0,0
0.1146238453373409,-0.06786728423170987,-0.004531116874531225,0,0,0,0
-0.08830498066265911,0.013217704768290128,0.024102095725468776,0,0,0,0
-0.07409132466265911,0.05899038976829013,0.042463209725468784,0,0,0,0
-0.020817072662659104,0.06170361576829013,-0.004100032274531226,0,0,0,0
-0.020817072662659104,0.06170361576829013,-0.004100032274531226,0,0,0,0
0.0723602453373409,-0.004292291231709872,-0.022874184274531223,0,0,0,0
0.12341243533734089,-0.09080340423170988,-0.042927594274531224,0,0,0,0
0.12341243533734089,-0.09080340423170988,-0.042927594274531224,0,0,0,0
-0.08335922466265912,0.034676585768290136,0.04024845772546878,0,0,0,0
-0.08335922466265912,0.034676585768290136,0.04024845772546878,0,0,0,0
-0.08335922466265912,0.034676585768290136,0.04024845772546878,0,0,0,0
-0.08335922466265912,0.034676585768290136,0.04024845772546878,0,0,0,0
0.09128038133734089,-0.011690467231709871,-0.0028934672745312253,0,0,0,0
0.015242020337340897,-0.05774705423170987,-0.023999210274531228,0,0,0,0
0.015242020337340897,-0.05774705423170987,-0.023999210274531228,0,0,0,0
-0.1439877346626591,0.03119105176829013,0.013450352725468774,0,0,0,0
-0.1439877346626591,0.03119105176829013,0.013450352725468774,0,0,0,0
-0.1187878446626591,0.03855301776829013,0.012260322725468772,0,0,0,0
0.11610509533734088,-0.09780409423170987,-0.008662815474531226,0,0,0,0
0.11610509533734088,-0.09780409423170987,-0.008662815474531226,0,0,0,0
-0.042441161662659106,-0.04179969123170987,0.0024720357254687736,0,0,0,0
-0.042441161662659106,-0.04179969123170987,0.0024720357254687736,0,0,0,0
-0.1581543746626591,0.05316168076829013,0.034477476725468775,0,0,0,0
-0.07383993466265912,0.08369076576829013,0.03264301272546878,0,0,0,0
0.12013970533734089,-0.04577137223170987,-0.016283221274531225,0,0,0,0
0.12013970533734089,-0.04577137223170987,-0.016283221274531225,0,0,0,0
0.12917977533734087,-0.07079861123170987,-0.015604765774531223,0,0,0,0
0.12917977533734087,-0.07079861123170987,-0.015604765774531223,0,0,0,0
0.12917977533734087,-0.07079861123170987,-0.015604765774531223,0,0,0,0
-0.12113350466265911,0.07347399576829013,0.03604176472546878,0,0,0,0
-0.005764945162659105,0.07549059576829013,0.044775585725468775,0,0,0,0
0.1404814853373409,0.01121206326829013,0.023673229725468776,0,0,0,0
0.04378959333734089,-0.06921353923170986,-0.017305548274531225,0,0,0,0
0.04378959333734089,-0.06921353923170986,-0.017305548274531225,0,0,0,0
-0.1159973946626591,-0.025110330231709867,0.005465845725468775,0,0,0,0
-0.1159973946626591,-0.025110330231709867,0.005465845725468775,0,0,0,0
-0.16556223466265912,0.032645079768290126,0.038641373725468775,0,0,0,0
0.1817373453373409,-0.011299863231709872,-0.024115760274531224,0,0,0,0
0.19361716533734089,-0.07323849423170987,-0.03723389627453123,0,0,0,0
0.07665416533734089,-0.07113240423170987,-0.04088768527453122,0,0,0,0
-0.08143013466265911,-0.011906331231709871,-0.026008267274531226,0,0,0,0
-0.1662759646626591,0.059969902768290125,-0.005986697974531226,0,0,0,0
-0.12049024466265912,0.08382695576829013,0.020104782725468777,0,0,0,0
-0.12049024466265912,0.08382695576829013,0.020104782725468777,0,0,0,0
0.15959188533734087,-0.09243679423170986,-0.005904681974531225,0,0,0,0
-0.031071169662659104,-0.01094859423170987,-0.0004062132745312249,0,0,0,0
-0.031071169662659104,-0.01094859423170987,-0.0004062132745312249,0,0,0,0
-0.0840389086626591,0.05928010576829013,0.035404352725468775,0,0,0,0
-0.0840389086626591,0.05928010576829013,0.035404352725468775,0,0,0,0
0.033867089337340894,0.023886980768290128,0.028219299725468775,0,0,0,0
0.11493465533734089,-0.02933069723170987,-0.019242592274531227,0,0,0,0
0.10993911533734088,-0.07653004423170988,-0.04256117027453122,0,0,0,0
-0.0643460116626591,-0.0012746419317098715,0.0012046737254687743,0,0,0,0
-0.0643460116626591,-0.0012746419317098715,0.0012046737254687743,0,0,0,0
-0.07957638066265911,0.054100045768290125,0.043702165725468776,0,0,0,0
0.018207757337340896,0.01845700776829013,0.026402359725468772,0,0,0,0
0.08200437533734088,-0.05024226423170987,-0.017942853274531226,0,0,0,0
0.035727231337340896,-0.052149614231709863,-0.029054565274531225,0,0,0,0
0.035727231337340896,-0.052149614231709863,-0.029054565274531225,0,0,0,0
-0.15854862466265912,0.05009589276829013,-0.012638087574531224,0,0,0,0
-0.14282711466265913,0.07775134576829014,0.007062522725468774,0,0,0,0
-0.026921351662659104,0.03462435576829013,-0.006005986074531225,0,0,0,0
0.09032279533734089,-0.028661918231709868,-0.0077402547415312255,0,0,0,0
0.015317837337340896,-0.051813774231709867,-0.025760312274531228,0,0,0,0
0.015317837337340896,-0.051813774231709867,-0.025760312274531228,0,0,0,0
-0.1661813546626591,0.07212187576829013,0.06573442972546877,0,0,0,0
-0.1661813546626591,0.07212187576829013,0.06573442972546877,0,0,0,0
-0.0522810776626591,0.05095660176829013,0.050641076725468775,0,0,0,0
-0.0522810776626591,0.05095660176829013,0.050641076725468775,0,0,0,0
0.053254525337340895,-0.07131132423170987,-0.03608326427453122,0,0,0,0
-0.1870975346626591,0.006783843468290128,0.011714784725468774,0,0,0,0
-0.1870975346626591,0.006783843468290128,0.011714784725468774,0,0,0,0
-0.1967216346626591,0.04369973276829013,0.04642831572546878,0,0,0,0
0.06385871533734089,0.017520925768290126,0.04296525972546878,0,0,0,0
0.1668071953373409,-0.04249845723170987,0.007364253725468774,0,0,0,0
0.1281909153373409,-0.08893666823170987,-0.023220224274531225,0,0,0,0
0.1281909153373409,-0.08893666823170987,-0.023220224274531225,0,0,0,0
-0.1953627446626591,0.07398109576829012,0.05233613972546877,0,0,0,0
0.1311819253373409,-0.04448255223170987,-0.021482141274531227,0,0,0,0
0.1311819253373409,-0.04448255223170987,-0.021482141274531227,0,0,0,0
0.1308562453373409,-0.08317305423170987,-0.03885366427453123,0,0,0,0
0.1308562453373409,-0.08317305423170987,-0.03885366427453123,0,0,0,0
