acc_x,acc_y,acc_z,gyro_x,gyro_y,gyro_z,label
-0.07391699166265911,0.07727069576829013,0.06509028972546878,0,0,0,0
-0.026898940662659104,0.08807896976829013,0.05755024972546877,0,0,0,0
0.036999051337340896,0.01545399776829013,0.04767843372546878,0,0,0,0
0.11062566533734089,-0.06435059823170987,0.03961600472546878,0,0,0,0
0.11954051533734089,-0.08937304423170987,0.04389990372546878,0,0,0,0
0.11954051533734089,-0.08937304423170987,0.04389990372546878,0,0,0,0
-0.011259444662659105,0.013258648368290129,0.058692639725468766,0,0,0,0
-0.027633746662659105,0.03903399176829013,0.07202838472546877,0,0,0,0
-0.027633746662659105,0.03903399176829013,0.07202838472546877,0,0,0,0
-0.027633746662659105,0.03903399176829013,0.07202838472546877,0,0,0,0
-0.005117877162659106,0.029719138768290125,0.05892538972546877,0,0,0,0
0.031695285337340895,0.016888094768290125,0.018887637725468774,0,0,0,0
0.0358485383373409,-0.09109887423170987,0.031985949725468775,0,0,0,0
0.0358485383373409,-0.09109887423170987,0.031985949725468775,0,0,0,0
-0.0378155546626591,-0.003320878231709871,0.039882659725468776,0,0,0,0
0.05370761533734089,0.08502435176829012,0.059433345725468774,0,0,0,0
0.09086257533734089,0.11548437576829013,0.02447898972546877,0,0,0,0
0.022483269337340895,-0.13624294423170988,0.059030894725468776,0,0,0,0
0.022483269337340895,-0.13624294423170988,0.059030894725468776,0,0,0,0
-0.013442118662659104,-0.11207336423170987,0.03437097472546878,0,0,0,0
-0.041232951662659105,0.04218844776829013,0.025742552725468774,0,0,0,0
0.018993298337340897,0.025874475768290127,0.04413178972546878,0,0,0,0
0.018993298337340897,0.025874475768290127,0.04413178972546878,0,0,0,0
0.026684585337340895,-0.0053770478317098705,0.050027624725468775,0,0,0,0
0.026684585337340895,-0.0053770478317098705,0.050027624725468775,0,0,0,0
0.0561331913373409,-0.02837389423170987,0.05592124272546877,0,0,0,0
0.0561331913373409,-0.02837389423170987,0.05592124272546877,0,0,0,0
0.0561331913373409,-0.02837389423170987,0.05592124272546877,0,0,0,0
-0.12779968466265912,0.03339785576829013,0.030604369725468778,0,0,0,0
-0.12779968466265912,0.03339785576829013,0.030604369725468778,0,0,0,0
0.09049855933734088,-0.02051762923170987,0.012226770725468773,0,0,0,0
0.09049855933734088,-0.02051762923170987,0.012226770725468773,0,0,0,0
0.08169681533734088,-0.05668469023170987,0.00015083972546877603,0,0,0,0
-0.10578726466265911,-0.005260902231709871,0.04932047572546878,0,0,0,0
-0.10593555466265911,-0.005592822231709871,0.047496469725468775,0,0,0,0
-0.1283364146626591,0.07255409976829014,0.06536629972546877,0,0,0,0
0.06988279033734088,0.004653349968290129,0.013558836725468773,0,0,0,0
0.10891667533734088,-0.06759379423170987,0.017092327725468773,0,0,0,0
-0.11189344466265912,0.04811760876829013,0.10443012972546878,0,0,0,0
-0.11189344466265912,0.04811760876829013,0.10443012972546878,0,0,0,0
-0.08094995766265911,0.11627356576829014,0.11741627972546875,0,0,0,0
-0.08094995766265911,0.11627356576829014,0.11741627972546875,0,0,0,0
0.017058579337340896,0.08566852276829014,0.07686641672546876,0,0,0,0
0.14811717533734087,-0.06943205423170988,-0.002694495074531225,0,0,0,0
0.14811717533734087,-0.06943205423170988,-0.002694495074531225,0,0,0,0
-0.051225741662659106,-0.07865756423170987,-0.002499322674531225,0,0,0,0
-0.11986006466265911,-0.03538923823170987,0.02040884972546877,0,0,0,0
-0.11986006466265911,-0.03538923823170987,0.02040884972546877,0,0,0,0
-0.07412126866265911,0.013736933768290127,0.008854664725468774,0,0,0,0
0.009456460337340895,0.04042836776829013,0.021775989725468774,0,0,0,0
0.048860089337340894,0.04781757376829013,-0.020407788274531227,0,0,0,0
0.0746159713373409,-0.014370620231709869,-0.023351674274531223,0,0,0,0
0.009824387337340895,-0.09186816723170986,0.033645699725468776,0,0,0,0
0.009824387337340895,-0.09186816723170986,0.033645699725468776,0,0,0,0
-0.020905955662659105,0.06459004876829012,0.07304469972546877,0,0,0,0
-0.020905955662659105,0.06459004876829012,0.07304469972546877,0,0,0,0
-0.020905955662659105,0.06459004876829012,0.07304469972546877,0,0,0,0
0.037022797337340894,0.030851003768290128,0.05461343372546878,0,0,0,0
0.0900944853373409,-0.06923574423170986,0.026716132725468775,0,0,0,0
-0.04583252266265911,-0.017064267231709875,-0.002625988474531225,0,0,0,0
-0.04583252266265911,-0.017064267231709875,-0.002625988474531225,0,0,0,0
-0.11865747466265911,0.03308215776829013,-0.008045850734531226,0,0,0,0
-0.11865747466265911,0.03308215776829013,-0.008045850734531226,0,0,0,0
-0.0041992026626591055,0.02424453876829013,0.005445499725468774,0,0,0,0
0.05340425233734089,0.013457855768290129,-0.004647089574531225,0,0,0,0
0.1201102453373409,-0.004616439231709871,-0.027149312274531226,0,0,0,0
-0.06728084866265911,0.04445087376829013,0.05728486972546878,0,0,0,0
0.043288151337340895,0.038066083768290127,0.04535665372546877,0,0,0,0
0.043288151337340895,0.038066083768290127,0.04535665372546877,0,0,0,0
0.0796487013373409,-0.05237810423170987,0.017610977725468772,0,0,0,0
0.0796487013373409,-0.05237810423170987,0.017610977725468772,0,0,0,0
-0.09781444866265912,-0.011552345231709872,0.02286214672546877,0,0,0,0
-0.09932888466265911,0.030498418768290125,0.03479346472546878,0,0,0,0
0.0461035893373409,0.06392828276829013,0.03665931972546878,0,0,0,0
0.1290887053373409,0.02765957576829013,-0.017697943774531225,0,0,0,0
0.1290887053373409,0.02765957576829013,-0.017697943774531225,0,0,0,0
0.020117108337340896,-0.10349982423170986,-0.012571452574531225,0,0,0,0
-0.15373800466265913,0.007548630768290128,-0.012043221274531224,0,0,0,0
-0.15373800466265913,0.007548630768290128,-0.012043221274531224,0,0,0,0
-0.09986685066265912,0.09029706176829012,0.023103321725468775,0,0,0,0
-0.09986685066265912,0.09029706176829012,0.023103321725468775,0,0,0,0
0.11377479533734089,0.030846038768290132,0.03412763572546878,0,0,0,0
0.11377479533734089,0.030846038768290132,0.03412763572546878,0,0,0,0
0.07270290033734089,-0.04387930023170987,0.003155691725468775,0,0,0,0
0.005517594337340895,-0.05639277023170987,0.006115126725468775,0,0,0,0
-0.09570024766265911,0.03814478576829013,0.05209864972546878,0,0,0,0
-0.014169390662659105,0.06609758576829013,0.021238521725468775,0,0,0,0
-0.014169390662659105,0.06609758576829013,0.021238521725468775,0,0,0,0
-0.014169390662659105,0.06609758576829013,0.021238521725468775,0,0,0,0
0.07813731833734089,0.058013505768290126,-0.005176959974531225,0,0,0,0
0.10291453533734089,0.016864302768290127,-0.023951159274531227,0,0,0,0
-0.035839922662659104,-0.061861568231709865,-0.022580163274531224,0,0,0,0
0.1322967653373409,0.02214575176829013,-0.03809483827453122,0,0,0,0
0.1322967653373409,0.02214575176829013,-0.03809483827453122,0,0,0,0
0.16093408533734088,-0.013827276231709871,-0.04458326227453122,0,0,0,0
0.16093408533734088,-0.013827276231709871,-0.04458326227453122,0,0,0,0
0.10022966533734087,-0.012364506231709873,-0.05409805627453122,0,0,0,0
0.0047868889373408946,0.012906039168290128,-0.037676145274531225,0,0,0,0
0.0047868889373408946,0.012906039168290128,-0.037676145274531225,0,0,0,0
-0.1252576646626591,-0.009335052231709872,-0.015456886274531225,0,0,0,0
-0.09037540466265911,-0.035440384231709865,-0.024965130274531226,0,0,0,0
-0.09037540466265911,-0.035440384231709865,-0.024965130274531226,0,0,0,0
0.042000500337340894,-0.026119364231709873,-0.048928655274531226,0,0,0,0
0.1399289253373409,0.009210369768290129,-0.057039250274531224,0,0,0,0
0.054337422337340895,-0.01296767523170987,-0.04576516627453122,0,0,0,0
-0.058400137662659106,-0.03656491623170987,-0.024391775274531225,0,0,0,0
-0.058400137662659106,-0.03656491623170987,-0.024391775274531225,0,0,0,0
-0.0623100146626591,0.010778525768290128,-0.036080925274531224,0,0,0,0
-0.0623100146626591,0.010778525768290128,-0.036080925274531224,0,0,0,0
0.012535969337340896,-0.004640024231709872,-0.043371840274531226,0,0,0,0
0.012535969337340896,-0.004640024231709872,-0.043371840274531226,0,0,0,0
-0.0538229776626591,-0.015490972231709874,-0.03972138627453122,0,0,0,0
-0.06776941466265911,-0.021899729231709873,-0.046614532274531224,0,0,0,0
-0.06776941466265911,-0.021899729231709873,-0.046614532274531224,0,0,0,0
-0.06590250466265911,0.004728055468290129,-0.049100800274531224,0,0,0,0
0.042694775337340896,0.06555488576829012,-0.04837528627453123,0,0,0,0
0.06309873533734088,0.025341594768290128,-0.04621805027453122,0,0,0,0
0.039674679337340896,-0.022765290231709874,-0.05415971427453122,0,0,0,0
-0.023620875662659104,-0.06135893423170988,-0.04399313027453122,0,0,0,0
-0.08165577466265911,-0.03931748823170987,-0.027177073274531227,0,0,0,0
-0.08165577466265911,-0.03931748823170987,-0.027177073274531227,0,0,0,0
-0.10761392466265911,0.02593371276829013,-0.006404866274531225,0,0,0,0
0.029821888337340896,-0.021342158231709873,-0.0008848142745312261,0,0,0,0
0.0407533803373409,-0.044069034231709873,-0.021094073274531226,0,0,0,0
-0.0291426496626591,-0.04179059823170987,0.0010642157254687748,0,0,0,0
-0.0291426496626591,-0.04179059823170987,0.0010642157254687748,0,0,0,0
-0.09897926466265912,-0.017003130231709872,0.013905457725468775,0,0,0,0
-0.03253696766265911,0.02369943876829013,-0.0004199402745312256,0,0,0,0
0.08911229533734089,-0.014027267231709871,-0.05825418027453123,0,0,0,0
0.08911229533734089,-0.014027267231709871,-0.05825418027453123,0,0,0,0
0.004102627337340895,-0.06998612423170987,-0.08747379027453123,0,0,0,0
0.004102627337340895,-0.06998612423170987,-0.08747379027453123,0,0,0,0
0.004102627337340895,-0.06998612423170987,-0.08747379027453123,0,0,0,0
-0.11631801466265912,0.04108318176829013,-0.010023935174531226,0,0,0,0
0.019307343337340896,0.014331126768290127,-0.012018258874531226,0,0,0,0
0.019307343337340896,0.014331126768290127,-0.012018258874531226,0,0,0,0
0.1545219553373409,-0.042398064231709866,-0.044206477274531225,0,0,0,0
-0.06836565466265912,-0.026145750231709876,0.011349226725468772,0,0,0,0
-0.06836565466265912,-0.026145750231709876,0.011349226725468772,0,0,0,0
-0.06836565466265912,-0.026145750231709876,0.011349226725468772,0,0,0,0
-0.16742657466265912,-0.02203358423170987,0.053464786725468776,0,0,0,0
-0.028919299662659104,0.029627132768290126,0.03597314972546878,0,0,0,0
0.06895858533734088,0.024438977768290127,-0.007967002734531225,0,0,0,0
0.0479444653373409,-0.03292594423170987,-0.004867751974531225,0,0,0,0
0.0479444653373409,-0.03292594423170987,-0.004867751974531225,0,0,0,0
-0.1428332146626591,0.027772035768290126,-0.031065787274531225,0,0,0,0
-0.1010145976626591,0.030052255768290126,-0.03852247027453122,0,0,0,0
-0.1010145976626591,0.030052255768290126,-0.03852247027453122,0,0,0,0
0.014140717337340895,0.01705438876829013,-0.05165351827453122,0,0,0,0
0.18410245533734088,-0.05226219423170987,-0.050080277274531224,0,0,0,0
0.15191690533734087,-0.05331649723170987,-0.040689648274531226,0,0,0,0
0.15191690533734087,-0.05331649723170987,-0.040689648274531226,0,0,0,0
0.020296208337340894,-0.03857014723170987,-0.013860030474531226,0,0,0,0
-0.09289787466265911,0.0024259392982901285,0.015544341725468775,0,0,0,0
-0.14070309466265912,0.03425719176829013,0.031177669725468777,0,0,0,0
-0.08595732066265911,0.05669966976829013,0.030755586725468773,0,0,0,0
0.1283875653373409,-0.01196495823170987,-0.004803510074531225,0,0,0,0
0.1534535553373409,-0.05718746423170987,-0.013395454074531226,0,0,0,0
0.1534535553373409,-0.05718746423170987,-0.013395454074531226,0,0,0,0
-0.0708268006626591,0.006242543768290129,-0.008723194974531225,0,0,0,0
-0.0708268006626591,0.006242543768290129,-0.008723194974531225,0,0,0,0
0.07698671033734089,-0.043683808231709864,-0.09177031027453122,0,0,0,0
-0.0996210886626591,0.004279894068290128,-0.0008481102745312259,0,0,0,0
-0.0996210886626591,0.004279894068290128,-0.0008481102745312259,0,0,0,0
-0.0996210886626591,0.004279894068290128,-0.0008481102745312259,0,0,0,0
-0.028557284662659103,0.050617662768290134,0.012908087725468774,0,0,0,0
-0.028557284662659103,0.050617662768290134,0.012908087725468774,0,0,0,0
0.1213681353373409,-0.06964482023170987,0.011672763725468775,0,0,0,0
0.0033980533373408938,-0.027094197231709867,0.004686556725468774,0,0,0,0
-0.11542061466265911,0.0005506221682901285,0.009266809725468773,0,0,0,0
-0.1265660146626591,0.022994095768290125,0.028594789725468774,0,0,0,0
0.0315312553373409,0.007687423068290128,-0.024034865274531227,0,0,0,0
0.0315312553373409,0.007687423068290128,-0.024034865274531227,0,0,0,0
0.1519800353373409,-0.08186725923170987,-0.08148816427453123,0,0,0,0
-0.06228273466265911,-0.026831394231709868,-0.07153141627453123,0,0,0,0
-0.06228273466265911,-0.026831394231709868,-0.07153141627453123,0,0,0,0
-0.044049342662659106,0.03043199276829013,-0.017207242274531225,0,0,0,0
