acc_x,acc_y,acc_z,gyro_x,gyro_y,gyro_z,label
0.10041457533734088,0.04205272576829013,0.011889622725468774,0,0,0,0
0.1833017553373409,-0.0051327462317098714,-0.020539070274531224,0,0,0,0
0.16676179533734087,-0.08293039723170986,-0.024644811274531227,0,0,0,0
-0.12198847466265912,-0.01271922523170987,0.02959314972546877,0,0,0,0
-0.1448559646626591,0.05187906376829013,0.08244129972546878,0,0,0,0
-0.1448559646626591,0.05187906376829013,0.08244129972546878,0,0,0,0
0.09736348533734089,0.007192424368290129,-0.0007670952745312248,0,0,0,0
0.2261443253373409,-0.02848112223170987,-0.017977054274531223,0,0,0,0
0.2335725953373409,-0.03452998923170987,-0.04152826227453122,0,0,0,0
0.2335725953373409,-0.03452998923170987,-0.04152826227453122,0,0,0,0
0.07999574533734088,0.010578501768290128,-0.019369675274531227,0,0,0,0
-0.1276222046626591,0.029713205768290132,1.1487254687747583e-06,0,0,0,0
-0.1276222046626591,0.029713205768290132,1.1487254687747583e-06,0,0,0,0
-0.15510662466265912,-0.0019457276317098714,0.037372319725468776,0,0,0,0
-0.005473788362659106,-0.0035749669317098713,0.012362204725468773,0,0,0,0
0.11846162533734088,-0.01867035923170987,-0.05084472427453122,0,0,0,0
0.11846162533734088,-0.01867035923170987,-0.05084472427453122,0,0,0,0
0.06998216533734089,-0.014864131231709871,-0.0010401802745312258,0,0,0,0
0.06998216533734089,-0.014864131231709871,-0.0010401802745312258,0,0,0,0
-0.09893854466265911,0.023339459768290126,0.028655867725468773,0,0,0,0
-0.1506061346626591,0.07662269576829013,0.056388805725468776,0,0,0,0
-0.1506061346626591,0.07662269576829013,0.056388805725468776,0,0,0,0
0.11800281533734089,-0.004409548231709872,-0.008332033474531226,0,0,0,0
0.1842690653373409,-0.02625076423170987,-0.015591563274531227,0,0,0,0
0.05268956833734089,-0.030284341231709866,0.013361851725468773,0,0,0,0
0.05268956833734089,-0.030284341231709866,0.013361851725468773,0,0,0,0
-0.13204420466265912,0.032265665768290125,0.021126641725468773,0,0,0,0
-0.11168936466265911,0.05610039576829013,0.0023929521254687754,0,0,0,0
-0.023306925662659104,0.06876625576829012,0.0018166707254687756,0,0,0,0
0.05852433833734089,0.029562485768290125,-0.024841036274531228,0,0,0,0
0.12370664533734088,-0.01890074823170987,-0.029708935274531226,0,0,0,0
0.1270755953373409,-0.050146134231709875,-0.037152005274531226,0,0,0,0
0.0865863003373409,-0.0022417600317098715,-0.013315607674531226,0,0,0,0
-0.05037983266265911,0.06559028076829013,0.023642132725468775,0,0,0,0
-0.05037983266265911,0.06559028076829013,0.023642132725468775,0,0,0,0
-0.09018286066265911,0.050748539768290135,0.011692695725468775,0,0,0,0
-0.09018286066265911,0.050748539768290135,0.011692695725468775,0,0,0,0
-0.007515986662659105,-0.029148764231709867,0.014856593725468773,0,0,0,0
0.09927922533734088,0.00021916676829012837,0.03279077972546878,0,0,0,0
0.048699872337340896,0.015428075768290129,0.026909024725468775,0,0,0,0
0.048699872337340896,0.015428075768290129,0.026909024725468775,0,0,0,0
-0.021779711662659105,-0.005174395231709871,0.036703739725468774,0,0,0,0
-0.027946742662659105,0.040311169768290134,0.024343906725468777,0,0,0,0
0.04153672833734089,0.03035176576829013,-0.011622019274531225,0,0,0,0
0.04153672833734089,0.03035176576829013,-0.011622019274531225,0,0,0,0
0.07986280133734089,-0.029173546231709868,-0.018002833274531227,0,0,0,0
0.06539336833734088,-0.05957126023170987,-0.039468468274531224,0,0,0,0
-0.06311758466265911,0.03432946576829013,-0.014646329274531224,0,0,0,0
-0.0825458346626591,0.07684250576829013,0.013597939725468775,0,0,0,0
-0.0450488886626591,0.07391083576829012,-0.011403055574531225,0,0,0,0
0.032705609337340895,0.008938712368290129,-0.022393878274531223,0,0,0,0
0.1131029253373409,-0.03991741423170987,-0.031500198274531224,0,0,0,0
0.1300074753373409,-0.04761267223170987,-0.021465362274531226,0,0,0,0
0.06724321033734089,-0.009275722231709872,-0.016339577774531225,0,0,0,0
-0.06538399066265911,0.04597127576829013,0.009155337725468775,0,0,0,0
-0.06538399066265911,0.04597127576829013,0.009155337725468775,0,0,0,0
-0.051988680662659104,0.02801160276829013,0.032802934725468774,0,0,0,0
0.006794850337340894,0.02782727576829013,0.05402879572546878,0,0,0,0
0.006794850337340894,0.02782727576829013,0.05402879572546878,0,0,0,0
-0.06892183466265911,0.04132616576829013,-0.008741958474531224,0,0,0,0
-0.06892183466265911,0.04132616576829013,-0.008741958474531224,0,0,0,0
-0.08462532466265911,0.08624190576829012,-0.0030621602745312254,0,0,0,0
0.0405366103373409,0.010340571768290127,-0.009455193574531225,0,0,0,0
0.0405366103373409,0.010340571768290127,-0.009455193574531225,0,0,0,0
0.08215715133734089,-0.02515428623170987,-0.044671465274531225,0,0,0,0
0.07601339033734089,-0.03839203923170987,-0.04374505427453122,0,0,0,0
-0.0010032492626591057,-0.012431466231709872,-0.018046958774531226,0,0,0,0
-0.1134538446626591,0.02957452876829013,0.004037444225468774,0,0,0,0
-0.0466047126626591,0.029767859768290127,0.004409371225468775,0,0,0,0
0.022528473337340895,0.011018704368290128,-0.008185143814531226,0,0,0,0
-0.051908762662659105,-0.017943948231709868,-0.010649718374531224,0,0,0,0
-0.051908762662659105,-0.017943948231709868,-0.010649718374531224,0,0,0,0
-0.051908762662659105,-0.017943948231709868,-0.010649718374531224,0,0,0,0
-0.05008495666265911,-0.0002571906317098715,0.0026338327254687753,0,0,0,0
-0.03916805466265911,-0.0002443607317098714,0.0029145227254687737,0,0,0,0
-0.03916805466265911,-0.0002443607317098714,0.0029145227254687737,0,0,0,0
-0.019806273662659107,-0.03257160723170987,-0.02641977227453123,0,0,0,0
-0.08888958466265912,-0.024521162231709866,-0.015582735874531226,0,0,0,0
-0.12001388466265912,-0.0010756398317098713,-0.004641188674531225,0,0,0,0
-0.013626082662659106,0.026252746768290126,0.013686965725468774,0,0,0,0
-0.013626082662659106,0.026252746768290126,0.013686965725468774,0,0,0,0
-0.013626082662659106,0.026252746768290126,0.013686965725468774,0,0,0,0
0.11076509533734089,-0.012296530231709872,-0.019073559274531224,0,0,0,0
0.0952044653373409,-0.03473524723170987,-0.015207590274531224,0,0,0,0
0.013645379337340894,-0.015596011231709872,-0.010724307674531225,0,0,0,0
-0.0704450446626591,0.019246024768290126,0.011820880725468774,0,0,0,0
0.08391315133734088,-0.03279124123170987,-0.016192914274531227,0,0,0,0
0.08391315133734088,-0.03279124123170987,-0.016192914274531227,0,0,0,0
0.09373122833734089,-0.030303284231709866,-0.04018269327453122,0,0,0,0
-0.0490909416626591,0.056516285768290125,-0.022734417274531224,0,0,0,0
0.0332202123373409,-0.05650412423170986,-0.03161488327453123,0,0,0,0
0.0843350553373409,-0.05096803423170987,-0.058045913274531215,0,0,0,0
0.024654881337340895,-0.012670859231709871,-0.022825075274531224,0,0,0,0
-0.0785518486626591,-0.00958876263170987,0.010757110725468776,0,0,0,0
-0.07398184166265911,-0.0004608954317098712,0.012858168725468775,0,0,0,0
-0.07398184166265911,-0.0004608954317098712,0.012858168725468775,0,0,0,0
-0.004243739262659105,0.02335673276829013,0.014044515725468772,0,0,0,0
0.07077333133734089,0.00020627726829012833,-0.0019475355745312258,0,0,0,0
0.07077333133734089,0.00020627726829012833,-0.0019475355745312258,0,0,0,0
0.07077333133734089,0.00020627726829012833,-0.0019475355745312258,0,0,0,0
0.03669397033734089,-0.07996482423170986,0.004648212725468775,0,0,0,0
-0.07302721466265912,-0.04080080023170987,0.006738517725468776,0,0,0,0
-0.13459013466265912,0.010153115268290129,0.023038147725468774,0,0,0,0
-0.10043333466265911,0.03696361576829013,0.010948364725468774,0,0,0,0
-0.10043333466265911,0.03696361576829013,0.010948364725468774,0,0,0,0
0.016988770337340895,0.026070785768290132,0.005574385725468774,0,0,0,0
0.016988770337340895,0.026070785768290132,0.005574385725468774,0,0,0,0
-0.030978472662659105,0.028131783768290126,-0.04461686727453122,0,0,0,0
-0.1164884446626591,0.06046413576829013,-0.03687950027453123,0,0,0,0
-0.0980438046626591,0.021780687768290126,-0.039326538274531225,0,0,0,0
0.0480427903373409,-0.04067755423170987,-0.03509401827453122,0,0,0,0
0.0480427903373409,-0.04067755423170987,-0.03509401827453122,0,0,0,0
0.1476550253373409,-0.07228739423170986,-0.03964895727453122,0,0,0,0
0.12673923533734088,-0.07166040423170987,-0.023314555274531225,0,0,0,0
0.033442322337340895,-0.03379226623170987,-0.020336361274531225,0,0,0,0
-0.056539994662659104,-0.006258624231709871,0.027356062725468772,0,0,0,0
-0.056539994662659104,-0.006258624231709871,0.027356062725468772,0,0,0,0
-0.06951931466265912,0.05045902776829013,0.03341709172546878,0,0,0,0
0.043581788337340895,-0.009362288831709871,0.006981973725468775,0,0,0,0
0.043581788337340895,-0.009362288831709871,0.006981973725468775,0,0,0,0
0.043581788337340895,-0.009362288831709871,0.006981973725468775,0,0,0,0
0.019417397337340894,-0.09255570723170987,-0.003333552274531225,0,0,0,0
-0.021421797662659104,-0.04837535023170987,0.0005054097254687745,0,0,0,0
-0.021421797662659104,-0.04837535023170987,0.0005054097254687745,0,0,0,0
-0.0648972346626591,0.01249640626829013,-0.002167429074531225,0,0,0,0
-0.0366200286626591,0.02396440076829013,-0.03174103027453122,0,0,0,0
0.017692486337340895,-0.02915966123170987,-0.04469128427453122,0,0,0,0
0.031925695337340895,-0.06564420423170987,-0.05171331327453122,0,0,0,0
0.020631997337340894,-0.049215634231709875,-0.05073009327453122,0,0,0,0
-0.0014756041626591055,-0.014340367231709871,-0.03288224527453122,0,0,0,0
-0.010791380662659104,0.017929858768290126,-0.007069118374531226,0,0,0,0
-0.024293787662659105,0.005004734268290128,0.020277449725468775,0,0,0,0
0.006511608937340895,-0.006884354231709872,0.013946495725468775,0,0,0,0
0.0673633753373409,0.004273203468290129,0.03954679772546878,0,0,0,0
0.0673633753373409,0.004273203468290129,0.03954679772546878,0,0,0,0
0.022972313337340896,-0.02114993023170987,-0.005508621074531225,0,0,0,0
0.022972313337340896,-0.02114993023170987,-0.005508621074531225,0,0,0,0
0.022972313337340896,-0.02114993023170987,-0.005508621074531225,0,0,0,0
0.022972313337340896,-0.02114993023170987,-0.005508621074531225,0,0,0,0
-0.0545516806626591,-0.06665633423170987,0.03695292272546878,0,0,0,0
-0.08326423966265911,-0.010242727231709872,0.020222095725468774,0,0,0,0
-0.08326423966265911,-0.010242727231709872,0.020222095725468774,0,0,0,0
0.10879727533734089,-0.013404464231709873,-0.04271583027453122,0,0,0,0
0.10879727533734089,-0.013404464231709873,-0.04271583027453122,0,0,0,0
0.05793515833734089,-0.006432753231709871,-0.07734221327453122,0,0,0,0
0.05793515833734089,-0.006432753231709871,-0.07734221327453122,0,0,0,0
-0.0562777346626591,0.02104880676829013,-0.10666791027453124,0,0,0,0
-0.0562777346626591,0.02104880676829013,-0.10666791027453124,0,0,0,0
-0.0701969946626591,-0.014429068231709872,-0.038629968274531225,0,0,0,0
-0.036323626662659106,-0.018865328231709867,-0.0008698538745312246,0,0,0,0
-0.038639719662659104,0.03852519576829013,0.030487523725468774,0,0,0,0
-0.05029676766265911,0.004967296568290129,0.03881345972546878,0,0,0,0
-0.041097814662659105,-0.02024190723170987,0.027688309725468773,0,0,0,0
-0.0017074424626591055,0.03535059776829013,-0.0019627288745312256,0,0,0,0
0.04203530933734089,0.013783638768290129,-0.016342266274531225,0,0,0,0
0.04203530933734089,0.013783638768290129,-0.016342266274531225,0,0,0,0
0.04203530933734089,0.013783638768290129,-0.016342266274531225,0,0,0,0
0.06964809133734089,-0.0007433380317098713,-0.056044097274531225,0,0,0,0
0.04920436533734089,0.019049917768290132,-0.05572932527453122,0,0,0,0
-0.017688448662659107,-0.007808863631709871,-0.06833432427453123,0,0,0,0
-0.017688448662659107,-0.007808863631709871,-0.06833432427453123,0,0,0,0
-0.06863926466265911,0.04783317776829013,0.00015609672546877413,0,0,0,0
-0.06863926466265911,0.04783317776829013,0.00015609672546877413,0,0,0,0
0.0981349153373409,-0.03674629423170987,0.023831407725468778,0,0,0,0
0.0981349153373409,-0.03674629423170987,0.023831407725468778,0,0,0,0
0.0981349153373409,-0.03674629423170987,0.023831407725468778,0,0,0,0
0.019218365337340896,-0.020618864231709867,0.008857582725468775,0,0,0,0
0.021941010337340895,0.02129877676829013,0.03395029172546878,0,0,0,0
0.021941010337340895,0.02129877676829013,0.03395029172546878,0,0,0,0
0.0027256173373408944,0.07652224976829013,0.030841575725468775,0,0,0,0
