acc_x,acc_y,acc_z,gyro_x,gyro_y,gyro_z,label
0.19495612533734089,-0.02323629823170987,-0.015809650774531225,0,0,0,0
0.1661059553373409,0.0009575922682901286,-0.013673277274531225,0,0,0,0
0.1661059553373409,0.0009575922682901286,-0.013673277274531225,0,0,0,0
0.1365224053373409,0.04068520576829013,-0.0067227795745312255,0,0,0,0
0.13493825533734088,0.04463830076829013,-0.009826548474531224,0,0,0,0
0.11995689533734089,0.029029751768290132,-0.0034907892745312252,0,0,0,0
0.1699064453373409,-0.03294886023170987,0.004040901325468776,0,0,0,0
0.1699064453373409,-0.03294886023170987,0.004040901325468776,0,0,0,0
0.18857671533734088,-0.06202756123170987,0.018113843725468773,0,0,0,0
0.14288570533734088,-0.037690442231709864,0.04162938472546878,0,0,0,0
0.14288570533734088,-0.037690442231709864,0.04162938472546878,0,0,0,0
0.07678567533734089,0.005090278768290129,0.006274239725468774,0,0,0,0
0.06385070533734089,0.03968485576829013,-0.005184848674531225,0,0,0,0
0.06385070533734089,0.03968485576829013,-0.005184848674531225,0,0,0,0
0.10187875533734089,0.09153851876829013,-0.04059846027453122,0,0,0,0
0.17096091533734087,0.09249061976829012,-0.058873650274531224,0,0,0,0
0.2254688453373409,0.04982274576829013,-0.10947781027453124,0,0,0,0
0.25248099533734086,0.03559641876829013,-0.11047254027453123,0,0,0,0
0.1736422653373409,0.04456236976829013,-0.10231227427453124,0,0,0,0
0.022994248337340897,0.013550618768290128,-0.07625207427453123,0,0,0,0
0.022994248337340897,0.013550618768290128,-0.07625207427453123,0,0,0,0
-0.24501627466265913,0.03191112276829013,0.04073892672546878,0,0,0,0
-0.24501627466265913,0.03191112276829013,0.04073892672546878,0,0,0,0
-0.2709944046626591,0.05886334176829013,0.07698162672546877,0,0,0,0
-0.2709944046626591,0.05886334176829013,0.07698162672546877,0,0,0,0
0.21067725533734089,0.03361544376829013,0.0009888693254687742,0,0,0,0
0.11810695533734088,0.030768352768290125,-0.002477343274531225,0,0,0,0
-0.046917994662659106,0.05242398576829013,0.006050936725468774,0,0,0,0
-0.1984846946626591,0.05547752976829013,-0.08326626527453122,0,0,0,0
-0.2375849546626591,0.05547752976829013,-0.08326626527453122,0,0,0,0
-0.0925318546626591,0.022194090768290133,-0.018216295274531225,0,0,0,0
-0.0925318546626591,0.022194090768290133,-0.018216295274531225,0,0,0,0
-0.06262110066265911,-0.011004884231709871,0.007455377725468775,0,0,0,0
-0.05871732966265911,-0.06138433423170987,0.04093293372546878,0,0,0,0
-0.07112577466265911,-0.04209110423170987,0.08521777972546876,0,0,0,0
-0.07112577466265911,-0.04209110423170987,0.08521777972546876,0,0,0,0
-0.11515892466265912,0.09829384176829013,0.08427179272546878,0,0,0,0
-0.0433177786626591,0.08802274576829013,0.07537577572546877,0,0,0,0
0.015516774337340895,0.03491512576829013,0.04826709972546877,0,0,0,0
-0.0876465646626591,-0.056689768231709875,0.028016631725468772,0,0,0,0
-0.1408268746626591,-0.04097151123170987,0.011908738725468774,0,0,0,0
-0.1408268746626591,-0.04097151123170987,0.011908738725468774,0,0,0,0
-0.16536777466265912,0.014136280768290129,-0.008983249974531225,0,0,0,0
-0.045436556662659104,0.06549670176829013,-0.016670651774531225,0,0,0,0
-0.017022974662659108,0.018851238768290125,-0.0015411092745312256,0,0,0,0
-0.0325478396626591,0.030165535768290126,0.028888099725468772,0,0,0,0
-0.040073187662659104,0.07352692576829013,0.03838459672546878,0,0,0,0
-0.040073187662659104,0.07352692576829013,0.03838459672546878,0,0,0,0
-0.03329561466265911,0.09915706576829013,0.05921081972546877,0,0,0,0
-0.09794786466265912,-0.01901032023170987,0.05238722372546877,0,0,0,0
-0.09794786466265912,-0.01901032023170987,0.05238722372546877,0,0,0,0
-0.09794786466265912,-0.01901032023170987,0.05238722372546877,0,0,0,0
-0.09666260066265911,-0.03357736423170987,0.06930983472546877,0,0,0,0
-0.0372254206626591,-0.0009991537317098715,0.03277879172546878,0,0,0,0
0.1085619153373409,0.009406504768290129,-0.008607573874531226,0,0,0,0
0.1085619153373409,0.009406504768290129,-0.008607573874531226,0,0,0,0
0.09272405533734089,-0.016147624231709873,-0.026815374274531224,0,0,0,0
-0.06859501466265912,-0.021540070231709875,-0.006640775574531225,0,0,0,0
-0.019243414662659105,-0.039385056231709875,0.03404667772546878,0,0,0,0
-0.019243414662659105,-0.039385056231709875,0.03404667772546878,0,0,0,0
0.04878932533734089,-0.05551301423170987,0.03558613972546878,0,0,0,0
0.0963123453373409,-0.046914839231709866,0.03883350972546878,0,0,0,0
0.0963123453373409,-0.046914839231709866,0.03883350972546878,0,0,0,0
0.0373512433373409,-0.04229977723170987,0.06177798372546877,0,0,0,0
0.1417730453373409,-0.07479194923170987,-0.039014883274531224,0,0,0,0
0.1417730453373409,-0.07479194923170987,-0.039014883274531224,0,0,0,0
0.018092171337340895,-0.01759077523170987,-0.059053860274531224,0,0,0,0
-0.031670934662659106,0.01148240476829013,-0.036201627274531224,0,0,0,0
-0.031670934662659106,0.01148240476829013,-0.036201627274531224,0,0,0,0
-0.031670934662659106,0.01148240476829013,-0.036201627274531224,0,0,0,0
0.010790745337340892,-0.014149346231709872,-0.0016650392745312251,0,0,0,0
0.02807800033734089,-0.04035717423170987,0.045375879725468776,0,0,0,0
0.02807800033734089,-0.04035717423170987,0.045375879725468776,0,0,0,0
-0.022678549662659104,-0.01584016323170987,0.039905229725468776,0,0,0,0
-0.022678549662659104,-0.01584016323170987,0.039905229725468776,0,0,0,0
0.10188466533734089,-0.011344954231709871,-0.06385034027453122,0,0,0,0
0.10188466533734089,-0.011344954231709871,-0.06385034027453122,0,0,0,0
0.0499414603373409,0.02435529976829013,-0.021208580274531225,0,0,0,0
0.0499414603373409,0.02435529976829013,-0.021208580274531225,0,0,0,0
0.017482487337340896,0.02643760376829013,-0.023295147274531226,0,0,0,0
0.017482487337340896,0.02643760376829013,-0.023295147274531226,0,0,0,0
0.012823311337340895,-0.019052436231709872,-0.007870955804531225,0,0,0,0
0.0389331983373409,-0.03725514423170987,0.0012468857254687741,0,0,0,0
-0.023391993662659104,0.03898389576829013,0.018244485725468777,0,0,0,0
-0.07099684066265911,0.015922051768290126,0.007255999725468775,0,0,0,0
-0.07099684066265911,0.015922051768290126,0.007255999725468775,0,0,0,0
0.06696626533734089,0.05627341576829013,-0.032752652274531224,0,0,0,0
0.06696626533734089,0.05627341576829013,-0.032752652274531224,0,0,0,0
0.06696626533734089,0.05627341576829013,-0.032752652274531224,0,0,0,0
0.09461738533734089,0.04976233276829013,-0.032298012274531225,0,0,0,0
-0.10998457466265912,0.027802315768290127,-0.026752133274531225,0,0,0,0
-0.13013609466265913,0.019056640768290133,-0.0027353002745312254,0,0,0,0
-0.09231117466265912,0.029559388768290132,0.027260789725468772,0,0,0,0
-0.041034586662659106,0.06265714576829012,0.04249214372546877,0,0,0,0
0.04147979533734089,0.014802517768290129,0.014253191725468774,0,0,0,0
-0.016716082662659105,-0.021309450231709874,0.022851215725468773,0,0,0,0
-0.016716082662659105,-0.021309450231709874,0.022851215725468773,0,0,0,0
-0.016716082662659105,-0.021309450231709874,0.022851215725468773,0,0,0,0
-0.0914069016626591,0.06872401876829012,0.020083801725468774,0,0,0,0
0.022961345337340896,0.08388996576829012,0.016069940725468773,0,0,0,0
0.0551776093373409,0.06418017576829013,-0.015483720274531224,0,0,0,0
0.0551776093373409,0.06418017576829013,-0.015483720274531224,0,0,0,0
-0.048113329662659104,-0.046557870231709875,-0.034132822274531224,0,0,0,0
-0.048113329662659104,-0.046557870231709875,-0.034132822274531224,0,0,0,0
-0.1494851946626591,-0.02765115723170987,-0.022220273274531226,0,0,0,0
-0.19872387466265912,0.01898652676829013,0.0005816977254687753,0,0,0,0
-0.1313099746626591,0.025304213768290125,0.035890672725468774,0,0,0,0
-0.017652209662659107,0.004448560368290128,0.04030597672546878,0,0,0,0
-0.017652209662659107,0.004448560368290128,0.04030597672546878,0,0,0,0
-0.026977904662659105,-0.04254513023170987,0.015698830725468776,0,0,0,0
-0.026977904662659105,-0.04254513023170987,0.015698830725468776,0,0,0,0
-0.1306476446626591,0.028406595768290126,0.045057962725468775,0,0,0,0
-0.1306476446626591,0.028406595768290126,0.045057962725468775,0,0,0,0
-0.1229856346626591,0.07042120576829013,0.012290434725468775,0,0,0,0
-0.1229856346626591,0.07042120576829013,0.012290434725468775,0,0,0,0
-0.1229856346626591,0.07042120576829013,0.012290434725468775,0,0,0,0
-0.05844095466265911,-0.04116381923170987,-0.026103885274531228,0,0,0,0
-0.06731584866265912,-0.08877763123170987,-0.053523476274531225,0,0,0,0
-0.0494561046626591,0.01134375676829013,0.001212565725468775,0,0,0,0
-0.0494561046626591,0.01134375676829013,0.001212565725468775,0,0,0,0
-0.10396278466265911,-0.05050415423170987,0.054494779725468775,0,0,0,0
-0.08857191466265911,-0.08448931423170987,0.07124828572546878,0,0,0,0
-0.08857191466265911,-0.08448931423170987,0.07124828572546878,0,0,0,0
-0.08857191466265911,-0.08448931423170987,0.07124828572546878,0,0,0,0
0.09374295933734089,0.03742406976829013,0.016190121725468774,0,0,0,0
0.09374295933734089,0.03742406976829013,0.016190121725468774,0,0,0,0
-0.03376596766265911,0.02709720776829013,0.009473209725468775,0,0,0,0
-0.03376596766265911,0.02709720776829013,0.009473209725468775,0,0,0,0
-0.1314756246626591,-0.046408060231709874,0.008052639725468776,0,0,0,0
-0.1314756246626591,-0.046408060231709874,0.008052639725468776,0,0,0,0
-0.06576078466265911,-0.0009201850317098717,-0.021665568274531227,0,0,0,0
0.0859588783373409,0.03497062976829013,-0.009685499974531225,0,0,0,0
0.1811433953373409,0.011106995168290128,-0.03217556027453122,0,0,0,0
-0.06901405466265911,-0.056796684231709874,-0.008750374674531226,0,0,0,0
-0.06901405466265911,-0.056796684231709874,-0.008750374674531226,0,0,0,0
-0.0783325046626591,0.005200490768290129,0.03442843372546878,0,0,0,0
0.07493125533734088,-0.05528022423170986,0.0011010333254687739,0,0,0,0
0.07493125533734088,-0.05528022423170986,0.0011010333254687739,0,0,0,0
-0.03891800266265911,-0.06923428423170987,0.03166001972546877,0,0,0,0
-0.0821293646626591,-0.03554223123170987,0.022697667725468777,0,0,0,0
-0.0489206146626591,0.0008988474682901286,-0.0006924462745312243,0,0,0,0
0.0446013613373409,0.016518178768290127,-0.04967620027453122,0,0,0,0
0.0446013613373409,0.016518178768290127,-0.04967620027453122,0,0,0,0
-0.12291591466265912,-0.004534050231709871,0.012123255725468775,0,0,0,0
