acc_x,acc_y,acc_z,gyro_x,gyro_y,gyro_z,label
0.0351680913373409,-0.04498038823170987,-0.016813679274531226,0,0,0,0
-0.0471567946626591,-0.03241302423170987,0.015189943725468776,0,0,0,0
-0.07456005466265911,0.01765282176829013,0.016333673725468772,0,0,0,0
-0.07456005466265911,0.01765282176829013,0.016333673725468772,0,0,0,0
0.09627458533734087,-0.036680561231709874,-0.021632416274531226,0,0,0,0
0.06608516533734089,-0.03603265823170987,-0.011436553274531226,0,0,0,0
-0.013710864162659105,-0.025319820231709873,0.0038941127254687744,0,0,0,0
-0.0619975886626591,-0.025668030231709868,0.020457367725468776,0,0,0,0
0.056082455337340895,-0.0056247052317098725,0.005309186725468775,0,0,0,0
0.09420396533734089,-0.030022854231709868,-0.001408024274531225,0,0,0,0
-0.054467947662659104,-0.02498863423170987,-0.0057199791745312254,0,0,0,0
-0.054467947662659104,-0.02498863423170987,-0.0057199791745312254,0,0,0,0
-0.054467947662659104,-0.02498863423170987,-0.0057199791745312254,0,0,0,0
-0.1188114946626591,-0.005221324731709872,0.012247286725468775,0,0,0,0
-0.1188114946626591,-0.005221324731709872,0.012247286725468775,0,0,0,0
0.1629154353373409,-0.029687684231709865,-0.012654514674531225,0,0,0,0
-0.041995794662659104,-0.030107754231709867,0.020152775725468773,0,0,0,0
-0.041995794662659104,-0.030107754231709867,0.020152775725468773,0,0,0,0
-0.14722231466265912,0.0013256375682901287,0.031492553725468775,0,0,0,0
-0.1239032546626591,0.028571343768290125,0.06923465972546877,0,0,0,0
-0.1239032546626591,0.028571343768290125,0.06923465972546877,0,0,0,0
-0.006139834562659105,0.028753042768290125,0.03911366272546878,0,0,0,0
0.1899252053373409,-0.02718009423170987,-0.027737517274531224,0,0,0,0
0.03322745933734089,0.01405318426829013,0.008890197725468774,0,0,0,0
-0.10644357466265911,0.03529548076829013,0.018351505725468772,0,0,0,0
-0.10644357466265911,0.03529548076829013,0.018351505725468772,0,0,0,0
-0.1538680846626591,0.053477609768290135,0.044338829725468785,0,0,0,0
-0.10958984466265911,0.03750788576829013,0.022351919725468777,0,0,0,0
0.09566833233734089,0.03446832376829013,-0.006981904844531225,0,0,0,0
0.06463948933734089,0.01682332776829013,-0.03555514327453123,0,0,0,0
-0.05298784466265911,0.013394177768290128,-0.008582384924531224,0,0,0,0
-0.12594869466265912,0.05949208176829013,0.034001616725468774,0,0,0,0
-0.12594869466265912,0.05949208176829013,0.034001616725468774,0,0,0,0
-0.0021620589626591053,0.06693863576829014,0.021164636725468776,0,0,0,0
0.1065695953373409,0.021570527768290125,-0.005295152974531226,0,0,0,0
0.1266600753373409,-0.013348263231709871,-0.02898582327453123,0,0,0,0
-0.11323927466265911,-0.006143301231709872,0.04321969972546878,0,0,0,0
-0.11323927466265911,-0.006143301231709872,0.04321969972546878,0,0,0,0
-0.17380693466265912,0.06063607576829013,0.06424606272546876,0,0,0,0
-0.17380693466265912,0.06063607576829013,0.06424606272546876,0,0,0,0
0.11809035533734089,0.0037334267682901283,0.002733085725468774,0,0,0,0
0.07947227133734089,-0.025184708231709874,-0.012989498674531225,0,0,0,0
0.07947227133734089,-0.025184708231709874,-0.012989498674531225,0,0,0,0
-0.1053891946626591,-0.029403179231709875,0.022734544725468774,0,0,0,0
-0.1601912346626591,0.00997691176829013,0.03841189272546878,0,0,0,0
-0.1601912346626591,0.00997691176829013,0.03841189272546878,0,0,0,0
-0.1601912346626591,0.00997691176829013,0.03841189272546878,0,0,0,0
-0.13143356466265912,0.03436517776829013,-0.008916671574531226,0,0,0,0
0.1224577153373409,-0.05519850823170987,-0.03306567227453122,0,0,0,0
-0.0517831646626591,-0.035442632231709875,0.03368789972546878,0,0,0,0
-0.0517831646626591,-0.035442632231709875,0.03368789972546878,0,0,0,0
-0.11164367466265912,0.00909659276829013,0.03898407972546877,0,0,0,0
-0.11164367466265912,0.00909659276829013,0.03898407972546877,0,0,0,0
-0.004524214862659106,0.060091445768290126,0.007439712725468774,0,0,0,0
0.09015847833734089,0.012767768368290128,-0.03354118027453122,0,0,0,0
0.10502072533734089,-0.01768506123170987,-0.013442094674531224,0,0,0,0
0.00030414283734089484,-0.019116002231709874,-0.002971793774531225,0,0,0,0
0.00030414283734089484,-0.019116002231709874,-0.002971793774531225,0,0,0,0
-0.08190582466265911,-0.02184861223170987,0.021485535725468772,0,0,0,0
-0.10755213466265912,-0.024436080231709872,0.02400418372546877,0,0,0,0
-0.07711666466265911,-0.005225830831709872,0.023269562725468776,0,0,0,0
0.042259423337340896,0.02369096276829013,-0.013147266274531225,0,0,0,0
-0.0767516946626591,-0.022626489231709873,0.003519438125468775,0,0,0,0
-0.0767516946626591,-0.022626489231709873,0.003519438125468775,0,0,0,0
-0.1040680746626591,-0.015401249231709874,0.0034801647254687753,0,0,0,0
-0.1040680746626591,-0.015401249231709874,0.0034801647254687753,0,0,0,0
0.014553372337340897,0.023783838768290128,-0.007555379014531225,0,0,0,0
0.014553372337340897,0.023783838768290128,-0.007555379014531225,0,0,0,0
0.05564166533734089,0.009601736768290129,0.001101039325468776,0,0,0,0
0.07996036233734088,0.028622490768290126,-0.006355531574531226,0,0,0,0
0.07996036233734088,0.028622490768290126,-0.006355531574531226,0,0,0,0
0.032863633337340895,0.026374030768290126,-0.012146623474531226,0,0,0,0
0.032863633337340895,0.026374030768290126,-0.012146623474531226,0,0,0,0
-0.005146010562659105,0.004798573768290128,-0.0016129508745312254,0,0,0,0
-0.08519848466265911,-0.01991080623170987,0.012525693725468773,0,0,0,0
0.033416573337340896,0.01426098976829013,0.004908440725468776,0,0,0,0
0.10709573533734089,0.004563922168290128,0.004655288125468776,0,0,0,0
0.09461261533734089,-0.0025038655317098715,0.004813514725468774,0,0,0,0
0.09461261533734089,-0.0025038655317098715,0.004813514725468774,0,0,0,0
-0.07629488466265912,0.010062396768290127,0.014641956725468776,0,0,0,0
-0.07629488466265912,0.010062396768290127,0.014641956725468776,0,0,0,0
-0.0977668596626591,0.02307630776829013,0.014117930725468773,0,0,0,0
-0.0431235146626591,0.01801402576829013,-0.004069991274531225,0,0,0,0
0.0642459053373409,0.003425878768290129,-0.017338575274531226,0,0,0,0
0.09447871833734088,-0.028695761231709867,-0.04057542827453122,0,0,0,0
-0.09022129466265912,0.03459281976829013,-0.037043340274531225,0,0,0,0
-0.09022129466265912,0.03459281976829013,-0.037043340274531225,0,0,0,0
-0.0602617106626591,0.017894381768290127,0.007534519725468773,0,0,0,0
-0.0602617106626591,0.017894381768290127,0.007534519725468773,0,0,0,0
0.026511780337340897,0.0030551795682901284,-0.009858043574531225,0,0,0,0
0.08476192133734088,-0.020771336231709868,-0.010941745274531225,0,0,0,0
-0.006192191262659106,0.020110267768290127,-0.005829991474531225,0,0,0,0
-0.07989548066265911,0.02833156576829013,-0.006366170974531226,0,0,0,0
-0.045858462662659104,0.01885957176829013,0.008404819725468773,0,0,0,0
0.04568082533734089,0.03857069576829013,-0.06380597027453123,0,0,0,0
0.04568082533734089,0.03857069576829013,-0.06380597027453123,0,0,0,0
-0.03700073466265911,0.02978185576829013,-0.04975137827453122,0,0,0,0
-0.04890888466265911,0.03563560876829013,-0.011592789074531226,0,0,0,0
-0.017773898662659108,0.03922241376829013,-0.003764171974531225,0,0,0,0
0.05240508533734089,0.00972772876829013,-0.019902582274531226,0,0,0,0
0.0524488613373409,-0.007002484231709872,-0.04193643027453122,0,0,0,0
-0.08411081466265911,0.05818433176829013,-0.017410417274531225,0,0,0,0
-0.08411081466265911,0.05818433176829013,-0.017410417274531225,0,0,0,0
-0.010297473062659105,0.06448205176829014,-0.003087647274531225,0,0,0,0
-0.010297473062659105,0.06448205176829014,-0.003087647274531225,0,0,0,0
0.04084579133734089,0.024465161768290132,-0.020880146274531226,0,0,0,0
0.07415239033734089,-0.005850362231709871,-0.05984477527453122,0,0,0,0
0.017335717337340895,0.030566375768290126,-0.04552300727453122,0,0,0,0
-0.0748284176626591,0.06313663176829012,-0.026090331274531225,0,0,0,0
-0.0748284176626591,0.06313663176829012,-0.026090331274531225,0,0,0,0
-0.10170257866265911,0.05778431576829013,0.012467829725468775,0,0,0,0
0.0522285623373409,0.011515343768290128,0.0034623907254687737,0,0,0,0
0.0486269153373409,0.03733992876829013,-0.03246817127453122,0,0,0,0
-0.007713778662659106,0.017998421768290127,-0.036852546274531224,0,0,0,0
-0.007713778662659106,0.017998421768290127,-0.036852546274531224,0,0,0,0
-0.007713778662659106,0.017998421768290127,-0.036852546274531224,0,0,0,0
-0.08047588466265912,0.01780412876829013,-0.0030337527745312254,0,0,0,0
-0.1419407646626591,0.04564186576829013,-0.009966178274531225,0,0,0,0
0.05716153533734089,-0.0025025422317098717,-0.04421057227453122,0,0,0,0
0.020669095337340893,0.023335015768290127,-0.021832092274531225,0,0,0,0
-0.037755187662659104,0.05215340876829013,0.027232561725468774,0,0,0,0
-0.037755187662659104,0.05215340876829013,0.027232561725468774,0,0,0,0
-0.11663645466265911,0.06080824576829014,0.01997379472546877,0,0,0,0
-0.11663645466265911,0.06080824576829014,0.01997379472546877,0,0,0,0
-0.11663645466265911,0.06080824576829014,0.01997379472546877,0,0,0,0
0.0920907153373409,0.0029404644682901283,-0.012869031774531225,0,0,0,0
0.04549562133734089,0.021071803768290133,-0.05137079527453122,0,0,0,0
0.04549562133734089,0.021071803768290133,-0.05137079527453122,0,0,0,0
0.04549562133734089,0.021071803768290133,-0.05137079527453122,0,0,0,0
-0.009178622362659105,0.022104692768290128,-0.023926385274531226,0,0,0,0
-0.009178622362659105,0.022104692768290128,-0.023926385274531226,0,0,0,0
-0.07320812466265911,0.07362146576829012,-0.017356820274531226,0,0,0,0
-0.008050902662659107,0.07193096876829014,-0.014135809274531227,0,0,0,0
0.09577991233734089,0.04815732576829013,-0.002597112974531225,0,0,0,0
0.05249807033734089,0.03600464776829013,-0.021258910274531223,0,0,0,0
0.05249807033734089,0.03600464776829013,-0.021258910274531223,0,0,0,0
-0.04428375466265911,0.050393675768290125,0.00046916472546877554,0,0,0,0
-0.06860960466265911,0.07101560876829012,0.020273296725468775,0,0,0,0
0.11359082533734088,0.01792936376829013,-0.025585253274531226,0,0,0,0
0.11359082533734088,0.01792936376829013,-0.025585253274531226,0,0,0,0
0.033781163337340894,0.02275748276829013,-0.029158540274531228,0,0,0,0
-0.056451590662659104,0.03339817276829013,-0.022611852274531226,0,0,0,0
-0.056451590662659104,0.03339817276829013,-0.022611852274531226,0,0,0,0
-0.021641714662659104,0.03612260576829013,0.014092795725468774,0,0,0,0
-0.021641714662659104,0.03612260576829013,0.014092795725468774,0,0,0,0
0.06705295533734089,0.009408665168290128,-0.002884455074531225,0,0,0,0
0.06705295533734089,0.009408665168290128,-0.002884455074531225,0,0,0,0
0.07627183533734089,-0.04240735723170987,-0.008868213074531225,0,0,0,0
0.021750752337340896,-0.04631680823170987,-0.003343482274531225,0,0,0,0
-0.08297441766265912,0.010900393768290129,0.015041236725468775,0,0,0,0
-0.1358071146626591,0.056614011768290125,0.012896458725468775,0,0,0,0
-0.1358071146626591,0.056614011768290125,0.012896458725468775,0,0,0,0
0.04911061933734089,0.005882305368290128,-0.001647789774531225,0,0,0,0
0.0406685993373409,-0.03603358223170987,-0.045680590274531224,0,0,0,0
0.0406685993373409,-0.03603358223170987,-0.045680590274531224,0,0,0,0
-0.018784411662659106,0.010923546768290129,0.014363603725468774,0,0,0,0
-0.018784411662659106,0.010923546768290129,0.014363603725468774,0,0,0,0
0.08585426033734089,-0.021316874231709873,0.009003476725468775,0,0,0,0
0.11930448533734088,-0.04563418023170987,-0.002655167874531225,0,0,0,0
-0.050331194662659104,0.01578311076829013,-0.023571689274531227,0,0,0,0
-0.1273536546626591,0.010851762168290128,-0.027185721274531227,0,0,0,0
-0.07862718866265911,-0.0007973785317098711,-0.018668492274531226,0,0,0,0
0.007113949337340895,-0.02619084623170987,-0.033423860274531224,0,0,0,0
0.007113949337340895,-0.02619084623170987,-0.033423860274531224,0,0,0,0
0.06445666933734089,-0.03868220423170987,-0.04755186627453122,0,0,0,0
-0.0605498146626591,0.011800501168290128,-0.019289656274531226,0,0,0,0
-0.09758041466265911,0.012091565768290128,0.023158679725468777,0,0,0,0
-0.07864483466265912,-0.01715189123170987,0.024261782725468774,0,0,0,0
0.022210805337340895,-0.012786912231709873,-0.0074150875645312255,0,0,0,0
0.022210805337340895,-0.012786912231709873,-0.0074150875645312255,0,0,0,0
0.05456000933734089,-0.01924632123170987,0.008745066725468775,0,0,0,0
0.017171875337340894,-0.03140338623170987,0.011300722725468774,0,0,0,0
0.017171875337340894,-0.03140338623170987,0.011300722725468774,0,0,0,0
-0.11923521466265911,-0.017188596231709867,-0.004818828474531226,0,0,0,0
