acc_x,acc_y,acc_z,gyro_x,gyro_y,gyro_z,label
-0.09108761166265911,0.029902181768290126,0.03374910172546878,0,0,0,0
-0.09289692466265911,-0.002839813631709872,0.029064331725468778,0,0,0,0
0.012487713337340896,-0.01951467423170987,0.026527975725468774,0,0,0,0
0.10516406533734088,-0.030639910231709866,0.007705495725468774,0,0,0,0
-0.0033487159126591058,-0.029314446231709868,0.0018201217254687754,0,0,0,0
-0.044380171662659104,0.0030353923282901286,0.04224038972546878,0,0,0,0
-0.04961584466265911,0.03403223776829013,0.05392965972546878,0,0,0,0
-0.0491756276626591,0.04538414776829013,0.03931134972546878,0,0,0,0
-0.0491756276626591,0.04538414776829013,0.03931134972546878,0,0,0,0
-0.0059466201626591055,0.006660274168290129,0.012154583725468775,0,0,0,0
0.07987815533734088,-0.07665022423170986,0.022147981725468772,0,0,0,0
0.0919366053373409,-0.11217785423170987,0.014094142725468772,0,0,0,0
-0.0035699683626591056,0.06877872976829014,-0.0034362510745312254,0,0,0,0
0.013863007337340895,0.12106971576829013,0.01859238572546877,0,0,0,0
0.008567921337340894,0.09563775076829013,-0.0061649218745312255,0,0,0,0
-0.011422808662659106,-0.05519614423170987,-0.011271418674531226,0,0,0,0
-0.011422808662659106,-0.05519614423170987,-0.011271418674531226,0,0,0,0
-0.011422808662659106,-0.05519614423170987,-0.011271418674531226,0,0,0,0
0.0420643013373409,-0.017152710231709868,-0.023754759274531224,0,0,0,0
0.03432084733734089,0.04256210576829013,0.0017296957254687743,0,0,0,0
0.032078855337340895,-0.01107131423170987,-0.009541638274531226,0,0,0,0
0.07966634533734089,-0.07329609423170987,-0.012559939974531226,0,0,0,0
0.08725206033734088,-0.07094243123170987,-0.017987169274531225,0,0,0,0
-0.011208708662659106,0.005539337268290128,0.007839874725468775,0,0,0,0
-0.08261287966265911,0.04307897176829013,0.021518157725468775,0,0,0,0
-0.08261287966265911,0.04307897176829013,0.021518157725468775,0,0,0,0
-0.04586599666265911,-0.014013444231709872,0.037767399725468775,0,0,0,0
-0.04586599666265911,-0.014013444231709872,0.037767399725468775,0,0,0,0
-0.04586599666265911,-0.014013444231709872,0.037767399725468775,0,0,0,0
0.019913022337340894,-0.025662416231709874,0.009452394725468775,0,0,0,0
0.1303937153373409,-0.023085897231709875,-0.011993594474531225,0,0,0,0
0.08809673033734089,-0.04155006623170987,0.017310414725468775,0,0,0,0
0.0002926033373408946,-0.052940910231709874,0.017440472725468774,0,0,0,0
-0.029046137662659104,-0.01583075223170987,-0.008121837714531226,0,0,0,0
-0.029046137662659104,-0.01583075223170987,-0.008121837714531226,0,0,0,0
-0.008545096662659107,0.06684270576829013,-0.03513657027453122,0,0,0,0
-0.0038473922166591054,0.009155395768290128,-0.027713497274531224,0,0,0,0
-0.030278189662659105,-0.01084709123170987,-0.004118098274531225,0,0,0,0
-0.024404890662659107,0.04544064576829013,0.0008550152254687754,0,0,0,0
0.08646890533734089,0.02900128376829013,0.0031854497254687744,0,0,0,0
0.08646890533734089,0.02900128376829013,0.0031854497254687744,0,0,0,0
0.08646890533734089,0.02900128376829013,0.0031854497254687744,0,0,0,0
0.022996155337340896,-0.037056642231709874,0.028434979725468778,0,0,0,0
0.026653687337340894,-0.06574386923170987,0.034419433725468775,0,0,0,0
-0.0014448004626591055,-0.03283630823170987,0.05323962972546878,0,0,0,0
-0.0981736046626591,0.08649073876829012,0.0009843097254687754,0,0,0,0
-0.054900820662659104,0.006154750768290129,0.047152833725468773,0,0,0,0
-0.054900820662659104,0.006154750768290129,0.047152833725468773,0,0,0,0
-0.014207442662659105,-0.03699985723170987,0.03204369972546878,0,0,0,0
0.058853355337340894,0.0040466730682901285,0.011777566725468775,0,0,0,0
0.058853355337340894,0.0040466730682901285,0.011777566725468775,0,0,0,0
0.0998704153373409,-0.03065118723170987,-0.048944320274531224,0,0,0,0
-0.19019068466265912,0.01613633976829013,0.015318362725468774,0,0,0,0
-0.18159736466265913,0.08710331976829012,0.04164978972546878,0,0,0,0
0.09104243933734088,0.02264352976829013,-0.007218398174531225,0,0,0,0
0.1950299453373409,-0.12133926423170988,-0.009689177574531225,0,0,0,0
-0.0728154946626591,0.08777192576829014,0.0009124147254687747,0,0,0,0
-0.0728154946626591,0.08777192576829014,0.0009124147254687747,0,0,0,0
-0.1378090746626591,0.10141966576829013,0.048730335725468775,0,0,0,0
-0.06717899466265911,-0.004788610231709871,0.023309831725468775,0,0,0,0
-0.06717899466265911,-0.004788610231709871,0.023309831725468775,0,0,0,0
0.07957746233734089,-0.01846764923170987,0.004602680725468774,0,0,0,0
-0.039251406662659104,0.02245408576829013,-0.005530710574531226,0,0,0,0
-0.1772636246626591,0.02136287176829013,0.022951523725468773,0,0,0,0
-0.15359838466265913,0.013186549768290128,0.04704650472546878,0,0,0,0
-0.04185512866265911,0.02179661576829013,0.023491619725468774,0,0,0,0
0.06046001133734089,0.007989448768290129,-0.001961971874531226,0,0,0,0
0.1406319753373409,-0.017918346231709868,-0.03878240727453122,0,0,0,0
0.08582507533734088,-0.01736149923170987,-0.010550351474531226,0,0,0,0
-0.07299526466265911,0.04357438176829013,0.026525054725468778,0,0,0,0
-0.1590360446626591,0.08771539976829014,0.04449004372546878,0,0,0,0
-0.09574220966265912,0.06558168576829013,0.056398914725468784,0,0,0,0
-0.09574220966265912,0.06558168576829013,0.056398914725468784,0,0,0,0
0.024602047337340893,0.0020120386882901287,0.024866823725468775,0,0,0,0
0.024602047337340893,0.0020120386882901287,0.024866823725468775,0,0,0,0
0.027134625337340897,-0.008595338231709873,-0.0029808536745312255,0,0,0,0
0.027134625337340897,-0.008595338231709873,-0.0029808536745312255,0,0,0,0
-0.1271733146626591,0.06752229976829012,0.03852008772546878,0,0,0,0
-0.1271733146626591,0.06752229976829012,0.03852008772546878,0,0,0,0
-0.1675618946626591,0.12685303576829013,0.022472039725468778,0,0,0,0
-0.0375643566626591,0.09906535576829013,0.039359457725468776,0,0,0,0
0.07440969133734089,0.0068127182682901286,-0.004712267274531225,0,0,0,0
0.12324725533734088,-0.08209826423170988,-0.05395022227453122,0,0,0,0
0.12324725533734088,-0.08209826423170988,-0.05395022227453122,0,0,0,0
-0.0035122710626591057,0.0020828259082901284,-0.013431228774531224,0,0,0,0
-0.16004656466265912,0.07829533276829014,0.014934746725468774,0,0,0,0
-0.16004656466265912,0.07829533276829014,0.014934746725468774,0,0,0,0
-0.16004656466265912,0.07829533276829014,0.014934746725468774,0,0,0,0
0.09223901533734088,-0.013025371231709873,-0.009400655374531226,0,0,0,0
0.14789640533734089,-0.02231842223170987,-0.017964483874531225,0,0,0,0
0.14789640533734089,-0.02231842223170987,-0.017964483874531225,0,0,0,0
0.14338065533734087,-0.027720659231709868,-0.04941094627453122,0,0,0,0
0.10083562533734089,-0.03045490923170987,-0.015629734274531223,0,0,0,0
-0.046636754662659104,-0.007462680631709871,-0.0005931988745312257,0,0,0,0
-0.2013960246626591,0.04494444176829013,0.029163406725468775,0,0,0,0
0.1463920753373409,-0.03403481223170987,0.022333566725468778,0,0,0,0
0.1463920753373409,-0.03403481223170987,0.022333566725468778,0,0,0,0
0.1863502653373409,-0.05319587423170988,-0.03931554727453122,0,0,0,0
0.07730542833734089,-0.03112044623170987,-0.011170358974531225,0,0,0,0
0.07730542833734089,-0.03112044623170987,-0.011170358974531225,0,0,0,0
-0.09009445466265911,0.004822859668290129,0.02995859272546877,0,0,0,0
-0.09009445466265911,0.004822859668290129,0.02995859272546877,0,0,0,0
-0.2392548846626591,0.05158835376829013,0.06771654972546877,0,0,0,0
-0.21915100466265913,0.04040846576829013,0.06356000972546877,0,0,0,0
0.2481672453373409,-0.08482856123170987,-0.06520753027453123,0,0,0,0
0.11485168533734089,-0.037598001231709866,0.010588530725468774,0,0,0,0
-0.1665186746626591,0.026608342768290126,0.04506152972546878,0,0,0,0
-0.1665186746626591,0.026608342768290126,0.04506152972546878,0,0,0,0
-0.0826504546626591,0.061364978768290133,0.009091279725468773,0,0,0,0
0.10924684533734089,-0.0047707806317098716,-0.017674215274531224,0,0,0,0
0.10924684533734089,-0.0047707806317098716,-0.017674215274531224,0,0,0,0
0.10924684533734089,-0.0047707806317098716,-0.017674215274531224,0,0,0,0
0.1922559853373409,-0.09172812023170987,-0.014322038274531225,0,0,0,0
-0.004383547912659105,-0.012435938231709872,-0.027503647274531227,0,0,0,0
-0.004383547912659105,-0.012435938231709872,-0.027503647274531227,0,0,0,0
-0.0659968216626591,0.03532183776829013,0.019654641725468772,0,0,0,0
-0.08569343866265912,0.07553402276829013,0.04021233172546878,0,0,0,0
-0.017328913662659106,0.07857677976829013,-0.028469337274531225,0,0,0,0
0.008769909337340894,-0.09164155423170987,-0.010971088774531226,0,0,0,0
0.008769909337340894,-0.09164155423170987,-0.010971088774531226,0,0,0,0
-0.07387045466265911,-0.06308554923170988,0.03191206972546878,0,0,0,0
-0.0035049277626591057,0.049446809768290134,0.030830643725468777,0,0,0,0
-0.0035049277626591057,0.049446809768290134,0.030830643725468777,0,0,0,0
0.11714955533734088,0.047028291768290126,-0.0009103012745312247,0,0,0,0
0.11714955533734088,0.047028291768290126,-0.0009103012745312247,0,0,0,0
0.1556128653373409,0.02728998076829013,-0.021615119274531226,0,0,0,0
0.08577872933734089,-0.015751434231709875,-0.006436140874531225,0,0,0,0
0.08599387533734089,-0.033402478231709866,0.03339225172546877,0,0,0,0
0.08599387533734089,-0.033402478231709866,0.03339225172546877,0,0,0,0
0.11770593533734089,-0.0071847102317098704,0.03301014772546878,0,0,0,0
0.09004956933734089,0.04902034176829013,0.013535629725468772,0,0,0,0
0.09004956933734089,0.04902034176829013,0.013535629725468772,0,0,0,0
0.11935063533734089,0.03100894576829013,0.011135177725468775,0,0,0,0
0.13448545533734088,-0.017772771231709873,0.017483554725468774,0,0,0,0
-0.14586990466265912,-0.03801456023170987,-0.008696188074531225,0,0,0,0
-0.14586990466265912,-0.03801456023170987,-0.008696188074531225,0,0,0,0
-0.13953636466265912,-0.07061819423170987,0.012739221725468774,0,0,0,0
-0.020985968662659105,-0.07511199423170987,-0.006599922474531225,0,0,0,0
0.08487636533734089,0.02533762076829013,-0.049684037274531224,0,0,0,0
0.08487636533734089,0.02533762076829013,-0.049684037274531224,0,0,0,0
0.1211915153373409,0.017946574768290126,-0.04548096827453122,0,0,0,0
0.10574428533734088,-0.03382499723170987,-0.030306084274531228,0,0,0,0
-0.008858187662659105,-0.06786249823170987,-0.006196071274531225,0,0,0,0
-0.13385933466265912,-0.052798024231709866,0.0010163411254687739,0,0,0,0
0.1254138153373409,0.005304796768290128,-0.026969047274531227,0,0,0,0
0.1254138153373409,0.005304796768290128,-0.026969047274531227,0,0,0,0
0.044594113337340896,-0.05231131823170987,-0.03666352227453122,0,0,0,0
-0.07062280966265912,-0.08112857423170987,0.004128275725468775,0,0,0,0
-0.16534307466265913,-0.03798290423170987,0.03224342972546878,0,0,0,0
-0.16039369466265913,0.02095516676829013,0.020928023725468772,0,0,0,0
-0.16039369466265913,0.02095516676829013,0.020928023725468772,0,0,0,0
0.17511893533734088,-0.07242907823170987,-0.03130064127453122,0,0,0,0
-0.08939913066265912,-0.01907625123170987,-0.025398673274531228,0,0,0,0
-0.08939913066265912,-0.01907625123170987,-0.025398673274531228,0,0,0,0
-0.08939913066265912,-0.01907625123170987,-0.025398673274531228,0,0,0,0
-0.13930052466265913,0.006643732368290129,0.003977177725468775,0,0,0,0
-0.1548100346626591,-0.004409224831709871,-0.004794801774531225,0,0,0,0
-0.1548100346626591,-0.004409224831709871,-0.004794801774531225,0,0,0,0
0.15058700533734087,-0.05365061123170987,-0.04959460027453123,0,0,0,0
0.15058700533734087,-0.05365061123170987,-0.04959460027453123,0,0,0,0
-0.2010217546626591,0.02576300576829013,-0.004122890574531225,0,0,0,0
0.0653927953373409,-0.05762041723170987,-0.023867567274531227,0,0,0,0
0.11778155533734089,-0.06662953423170986,-0.06070619427453123,0,0,0,0
0.10032798533734089,-0.06354585823170987,-0.06978691027453122,0,0,0,0
0.10032798533734089,-0.06354585823170987,-0.06978691027453122,0,0,0,0
0.05012866533734089,-0.059081810231709865,-0.033298130274531226,0,0,0,0
-0.06702659866265911,-0.04748597723170987,-0.030574490274531227,0,0,0,0
-0.1627460346626591,0.01948775276829013,-0.004739852274531225,0,0,0,0
-0.04585541066265911,0.012791675768290128,-0.018285794274531225,0,0,0,0
0.07141744533734089,-0.006628891231709871,-0.04712219427453122,0,0,0,0
0.09969770533734088,-0.02601163623170987,-0.06331134027453122,0,0,0,0
-0.0398623306626591,-0.08785077923170986,-0.010343779674531225,0,0,0,0
-0.0398623306626591,-0.08785077923170986,-0.010343779674531225,0,0,0,0
-0.08909223866265911,-0.03704842923170987,-0.005081333274531225,0,0,0,0
-0.08063009466265911,0.029002249768290127,-0.002524049574531225,0,0,0,0
-0.08063009466265911,0.029002249768290127,-0.002524049574531225,0,0,0,0
0.004925171737340895,0.07704057176829013,0.005299018725468775,0,0,0,0
0.0557478113373409,0.07689306576829014,-0.012229974574531226,0,0,0,0
0.040255085337340894,-0.012879589231709872,-0.04046010527453122,0,0,0,0
