acc_x,acc_y,acc_z,gyro_x,gyro_y,gyro_z,label
0.10868598533734089,0.02963689576829013,0.018930648725468773,0,0,0,0
0.1410102053373409,0.0007422541182901285,-0.039995648274531226,0,0,0,0
0.1410102053373409,0.0007422541182901285,-0.039995648274531226,0,0,0,0
0.059935775337340895,-0.016757806231709874,-0.09666182527453124,0,0,0,0
-0.1174624246626591,-0.02280214123170987,-0.0030487732745312253,0,0,0,0
0.057242125337340896,-0.010612553231709872,0.045267043725468775,0,0,0,0
0.18471366533734088,-0.007397010231709871,0.020205084725468773,0,0,0,0
0.18471366533734088,-0.007397010231709871,0.020205084725468773,0,0,0,0
0.008117596337340893,0.02038508276829013,-0.04982396527453122,0,0,0,0
0.008117596337340893,0.02038508276829013,-0.04982396527453122,0,0,0,0
0.008117596337340893,0.02038508276829013,-0.04982396527453122,0,0,0,0
-0.1102793546626591,-0.0027916784317098715,0.056029729725468776,0,0,0,0
-0.1902233446626591,-0.02747992423170987,0.09168083472546877,0,0,0,0
-0.037373144662659105,0.01876508076829013,0.03754294372546878,0,0,0,0
0.1153410153373409,0.026274140768290127,-0.14089031027453125,0,0,0,0
0.22263576533734092,0.007653085768290129,-0.1368876302745312,0,0,0,0
0.05901748533734089,-0.01895633923170987,0.006332276725468776,0,0,0,0
-0.08717306466265912,-0.04134879023170987,-0.015545494874531225,0,0,0,0
-0.16521404466265913,-0.020035628231709873,0.04969310572546878,0,0,0,0
-0.16521404466265913,-0.020035628231709873,0.04969310572546878,0,0,0,0
0.1767447653373409,-0.06040896723170987,-0.16464587027453123,0,0,0,0
0.1726432053373409,-0.05364341423170987,-0.05910483027453122,0,0,0,0
0.1726432053373409,-0.05364341423170987,-0.05910483027453122,0,0,0,0
0.1726432053373409,-0.05364341423170987,-0.05910483027453122,0,0,0,0
-0.1183783346626591,0.07840396576829013,-0.04591152827453122,0,0,0,0
-0.1183783346626591,0.07840396576829013,-0.04591152827453122,0,0,0,0
-0.018316157662659104,0.01915445976829013,-0.028631074274531227,0,0,0,0
-0.018316157662659104,0.01915445976829013,-0.028631074274531227,0,0,0,0
0.10657426533734089,-0.046436089231709866,-0.05141573727453123,0,0,0,0
0.0016627473373408948,-0.021513417231709873,-0.027798481274531227,0,0,0,0
-0.10161741466265911,-0.01228443023170987,0.05147332372546878,0,0,0,0
-0.17110012466265911,0.005490588068290128,0.07748431972546878,0,0,0,0
0.056249255337340896,0.024625028768290126,0.015355597725468774,0,0,0,0
0.056249255337340896,0.024625028768290126,0.015355597725468774,0,0,0,0
0.1523865853373409,-0.003714696631709872,-0.08667446027453123,0,0,0,0
0.06786452933734088,0.009480417268290128,0.0058553147254687766,0,0,0,0
-0.0470391116626591,0.02317488876829013,0.018938545725468773,0,0,0,0
-0.0470391116626591,0.02317488876829013,0.018938545725468773,0,0,0,0
-0.1251522846626591,0.014698414768290128,0.007360975725468775,0,0,0,0
0.07471753533734089,-0.06379528023170987,0.06547929472546878,0,0,0,0
0.10278855533734088,-0.011903586231709872,-0.006049652474531226,0,0,0,0
0.0999435553373409,0.010613718368290129,-0.10147512727453123,0,0,0,0
0.0783506553373409,0.035902035768290125,-0.023383482274531228,0,0,0,0
0.037734525337340896,-0.04836728423170986,-0.08543685027453123,0,0,0,0
0.07489997533734088,-0.03861618023170987,-0.012779076274531224,0,0,0,0
-0.007840521962659105,-0.03558642223170987,-0.030433328274531227,0,0,0,0
-0.045526106662659105,-0.003469985231709872,-0.04412738827453123,0,0,0,0
-0.019032748662659103,-0.011200464231709872,-0.00015866327453122574,0,0,0,0
4.0451837340894914e-05,-0.07153136123170988,0.010846952725468772,0,0,0,0
0.011441247337340893,-0.08171827423170987,0.04599454972546878,0,0,0,0
0.025251785337340894,-0.024845074231709875,0.011869863725468773,0,0,0,0
0.025251785337340894,-0.024845074231709875,0.011869863725468773,0,0,0,0
0.025251785337340894,-0.024845074231709875,0.011869863725468773,0,0,0,0
0.060011785337340896,0.026341245768290132,-0.052147038274531224,0,0,0,0
-0.015764220662659107,0.034390929768290134,-0.018326123274531224,0,0,0,0
-0.015764220662659107,0.034390929768290134,-0.018326123274531224,0,0,0,0
-0.015764220662659107,0.034390929768290134,-0.018326123274531224,0,0,0,0
-0.023573477662659104,-0.057344554231709866,0.04822513272546877,0,0,0,0
-0.012657816662659107,-0.04687158423170987,-0.0026546314745312253,0,0,0,0
-0.021473963662659107,0.01578898776829013,-0.023035045274531225,0,0,0,0
-0.021473963662659107,0.01578898776829013,-0.023035045274531225,0,0,0,0
-0.009243567662659106,0.030072450768290127,0.010483781725468776,0,0,0,0
-0.009243567662659106,0.030072450768290127,0.010483781725468776,0,0,0,0
0.042575852337340896,-0.08780618423170987,-0.010330756074531225,0,0,0,0
0.059129255337340904,-0.07914087723170987,0.034335903725468776,0,0,0,0
0.059129255337340904,-0.07914087723170987,0.034335903725468776,0,0,0,0
0.019375245337340894,-0.06439660723170987,-0.0030861810745312253,0,0,0,0
-0.035676176662659105,-0.03548381423170987,-0.06309010527453122,0,0,0,0
-0.06536577466265911,-0.007729601231709871,0.006240735725468775,0,0,0,0
-0.06536577466265911,-0.007729601231709871,0.006240735725468775,0,0,0,0
-0.0762633146626591,0.018322625768290128,0.06197805972546878,0,0,0,0
-0.0565756646626591,0.011313771168290129,-0.008174558024531226,0,0,0,0
0.029592148337340897,-0.020521894231709872,-0.04895513827453122,0,0,0,0
0.059022728337340895,-0.03021809123170987,-0.029279251274531227,0,0,0,0
0.059022728337340895,-0.03021809123170987,-0.029279251274531227,0,0,0,0
-0.0370096046626591,0.029138270768290127,0.04726797972546878,0,0,0,0
-0.0370096046626591,0.029138270768290127,0.04726797972546878,0,0,0,0
0.1271044853373409,-0.06555055923170987,0.029876814725468773,0,0,0,0
0.1271044853373409,-0.06555055923170987,0.029876814725468773,0,0,0,0
0.08712541533734089,0.009393820768290128,-0.03756695527453122,0,0,0,0
0.08712541533734089,0.009393820768290128,-0.03756695527453122,0,0,0,0
-0.09510372466265912,0.006479949168290129,0.11107116972546877,0,0,0,0
-0.09510372466265912,0.006479949168290129,0.11107116972546877,0,0,0,0
-0.07425220766265911,-0.0016799475317098717,0.08055504972546877,0,0,0,0
0.025753037337340898,-0.03347390423170987,0.05088208972546878,0,0,0,0
0.10831348533734089,-0.05173656423170987,-0.11776400027453124,0,0,0,0
0.0515203653373409,-0.020663553231709868,0.05404294572546878,0,0,0,0
-0.07018917466265912,-0.02274360023170987,0.05949331972546878,0,0,0,0
-0.08995798466265911,-0.029288580231709868,0.018799786725468774,0,0,0,0
-0.0015588599626591058,-0.021019759231709872,0.03669706972546878,0,0,0,0
-0.0015588599626591058,-0.021019759231709872,0.03669706972546878,0,0,0,0
0.07040673933734089,0.025108049768290126,-0.06712727027453122,0,0,0,0
0.10479261533734088,0.03108560176829013,-0.061271660274531216,0,0,0,0
0.10479261533734088,0.03108560176829013,-0.061271660274531216,0,0,0,0
0.047991675337340896,0.03534963176829013,-0.011431284274531226,0,0,0,0
-0.08109415466265911,0.01302039976829013,0.02430696972546877,0,0,0,0
0.06509114933734089,0.008459783068290129,-0.03822916327453123,0,0,0,0
0.07351123533734089,0.010184884768290128,-0.031436129274531224,0,0,0,0
0.07351123533734089,0.010184884768290128,-0.031436129274531224,0,0,0,0
-0.09600265766265911,0.02173754876829013,0.006197713725468775,0,0,0,0
-0.09600265766265911,0.02173754876829013,0.006197713725468775,0,0,0,0
-0.1360060546626591,0.06700856176829013,0.007533935725468775,0,0,0,0
-0.1360060546626591,0.06700856176829013,0.007533935725468775,0,0,0,0
-0.04163521066265911,0.08459531076829013,0.03708011372546878,0,0,0,0
0.06953345933734088,-0.019638478231709867,-0.10335811027453123,0,0,0,0
0.0590527693373409,0.006368864068290129,0.07483765372546877,0,0,0,0
0.0590527693373409,0.006368864068290129,0.07483765372546877,0,0,0,0
-0.0602529346626591,0.05063809176829013,0.014349816725468773,0,0,0,0
-0.0602529346626591,0.05063809176829013,0.014349816725468773,0,0,0,0
-0.0004514533626591051,0.03486997576829013,-0.010876865774531225,0,0,0,0
-0.0004514533626591051,0.03486997576829013,-0.010876865774531225,0,0,0,0
-0.0455241996626591,0.04758434976829013,0.019946203725468774,0,0,0,0
-0.0455241996626591,0.04758434976829013,0.019946203725468774,0,0,0,0
-0.051605780662659105,0.05791673576829012,0.03521496472546878,0,0,0,0
-0.04024103466265911,0.033965045768290125,-0.04476675527453122,0,0,0,0
-0.022959216662659106,-0.007066812631709871,-0.04854269727453122,0,0,0,0
0.025793473337340896,-0.036741906231709864,0.031978235725468776,0,0,0,0
-0.013896830662659104,-0.009706428231709871,0.004503892325468775,0,0,0,0
-0.013896830662659104,-0.009706428231709871,0.004503892325468775,0,0,0,0
0.04561769233734089,0.04211103376829013,0.04999529572546878,0,0,0,0
0.051213471337340895,0.04957672076829013,0.05776593972546878,0,0,0,0
0.0338309453373409,0.04154959976829013,-0.04374868427453122,0,0,0,0
0.0338309453373409,0.04154959976829013,-0.04374868427453122,0,0,0,0
-0.07149742466265911,-0.0017389829317098716,0.03400056772546878,0,0,0,0
-0.07149742466265911,-0.0017389829317098716,0.03400056772546878,0,0,0,0
0.012063328337340896,0.02189887776829013,-0.021019430274531223,0,0,0,0
0.012063328337340896,0.02189887776829013,-0.021019430274531223,0,0,0,0
-0.018301470662659105,0.008562688768290128,-0.12315405027453122,0,0,0,0
-0.020021804662659105,-0.046059480231709866,0.07776529672546877,0,0,0,0
-0.008188136262659105,-0.02564230423170987,-0.019682641274531225,0,0,0,0
-0.008188136262659105,-0.02564230423170987,-0.019682641274531225,0,0,0,0
0.03626462533734089,0.017061490768290128,-0.03877937327453122,0,0,0,0
-0.047783454662659104,0.04472478076829013,-0.04772133427453122,0,0,0,0
-0.03715866466265911,0.05169175276829013,0.03726049972546878,0,0,0,0
-0.032748969662659104,0.01629287376829013,0.01839662672546877,0,0,0,0
-0.045614894662659104,-0.033169954231709875,0.019133829725468773,0,0,0,0
-0.045614894662659104,-0.033169954231709875,0.019133829725468773,0,0,0,0
0.09083444533734089,0.019755345768290127,0.06892532972546878,0,0,0,0
-0.10279157966265912,-0.046741616231709866,0.07420923972546876,0,0,0,0
-0.1370775046626591,-0.019793960231709873,0.06256205272546878,0,0,0,0
0.06482249933734088,0.007085191168290129,-0.032170243274531225,0,0,0,0
0.06482249933734088,0.007085191168290129,-0.006335075274531225,0,0,0,0
0.04580136933734089,0.01063835676829013,-0.006335075274531225,0,0,0,0
-0.0019000846626591058,-0.03471420423170987,0.04494860572546878,0,0,0,0
-0.0019000846626591058,-0.03471420423170987,0.04494860572546878,0,0,0,0
0.033301751337340896,-0.021444710231709872,-0.027037783274531227,0,0,0,0
0.0454365893373409,0.013973489768290128,-0.06822793027453124,0,0,0,0
-0.014479525662659105,-0.023944794231709872,-0.007070751524531225,0,0,0,0
-0.0575180846626591,-0.035442018231709865,0.04913394972546878,0,0,0,0
-0.07086151466265911,-0.02435638423170987,0.07793246372546878,0,0,0,0
-0.037575896662659106,-0.01139858923170987,0.025009856725468776,0,0,0,0
0.0556245953373409,0.01431704376829013,-0.021502430274531224,0,0,0,0
0.0556245953373409,0.01431704376829013,-0.021502430274531224,0,0,0,0
-0.0455682596626591,-0.029886400231709867,-0.032146556274531224,0,0,0,0
-0.0455682596626591,-0.029886400231709867,-0.032146556274531224,0,0,0,0
-0.049907191662659105,-0.08924348923170987,0.05923630472546878,0,0,0,0
-0.028265936662659103,-0.08659931923170987,0.09012027972546877,0,0,0,0
0.02877227533734089,0.0031488452682901288,-0.12622051027453124,0,0,0,0
0.054787365337340896,-0.0020930882317098717,0.03881240972546878,0,0,0,0
0.054787365337340896,-0.0020930882317098717,0.03881240972546878,0,0,0,0
0.009431950337340896,-0.02568368823170987,0.03819485772546878,0,0,0,0
-0.0011054831626591058,-0.04627502423170987,-0.022288377274531226,0,0,0,0
-0.03821275966265911,0.008031502768290129,-0.005651004674531225,0,0,0,0
-0.06741255066265911,0.05420788576829013,0.03451476572546878,0,0,0,0
0.024855629337340895,-0.06423024423170987,-0.022081513274531228,0,0,0,0
0.041176715337340894,-0.07648322423170988,0.04398465972546877,0,0,0,0
0.0370026753373409,-0.018891575231709874,-0.018156786274531225,0,0,0,0
0.0370026753373409,-0.018891575231709874,-0.018156786274531225,0,0,0,0
-0.0041797477126591055,0.07371554976829013,0.005695901725468776,0,0,0,0
-0.0041797477126591055,0.07371554976829013,0.005695901725468776,0,0,0,0
-0.061576254662659105,-0.01756193023170987,0.021519617725468773,0,0,0,0
-0.061576254662659105,-0.01756193023170987,0.021519617725468773,0,0,0,0
0.009710137337340895,-0.03870303923170987,-0.002422697874531225,0,0,0,0
0.06505214533734088,-0.004438423631709872,0.03145572972546878,0,0,0,0
0.041072289337340896,-0.007302814231709871,0.06356567972546877,0,0,0,0
-0.018727381662659106,-0.02669193123170987,0.01981293372546877,0,0,0,0
-0.018727381662659106,-0.02669193123170987,0.01981293372546877,0,0,0,0
