acc_x,acc_y,acc_z,gyro_x,gyro_y,gyro_z,label
-0.0348272166626591,0.02118461776829013,-0.017499558674531224,0,0,0,0
-0.0571766696626591,0.013206535768290128,0.041709296725468775,0,0,0,0
0.03342372533734089,-0.021861511231709874,-0.020147498274531224,0,0,0,0
0.07054874133734089,-0.014958089231709873,0.04282034972546877,0,0,0,0
0.07054874133734089,-0.014958089231709873,0.04282034972546877,0,0,0,0
0.031166379337340892,-0.006926029231709872,0.021089116725468773,0,0,0,0
-0.04025543466265911,0.03991624176829013,-0.004998447074531225,0,0,0,0
-0.06449144466265912,0.06235995576829013,-0.016701336274531225,0,0,0,0
0.0273802913373409,-0.008185463731709872,0.04812599972546878,0,0,0,0
0.11398660533734088,-0.0024103102317098715,-0.07606561027453122,0,0,0,0
0.11398660533734088,-0.0024103102317098715,-0.07606561027453122,0,0,0,0
0.0691436953373409,0.04015755576829013,-0.04073904027453122,0,0,0,0
0.0691436953373409,0.04015755576829013,-0.04073904027453122,0,0,0,0
0.0691436953373409,0.04015755576829013,-0.04073904027453122,0,0,0,0
0.044386403337340896,-0.039672464231709864,-0.06819187027453123,0,0,0,0
0.044386403337340896,-0.039672464231709864,-0.06819187027453123,0,0,0,0
0.11206971533734089,-0.03371843623170987,-0.05659407827453122,0,0,0,0
0.08342191533734089,0.019095593768290127,0.004403294725468775,0,0,0,0
-0.09439676466265912,0.08421016576829013,-0.009725417274531226,0,0,0,0
-0.0552546346626591,0.01979973976829013,-0.07766352427453123,0,0,0,0
-0.0552546346626591,0.01979973976829013,-0.07766352427453123,0,0,0,0
0.030910795337340896,-0.01970859123170987,0.030704149725468772,0,0,0,0
-0.014840682162659106,0.0012518112682901286,-0.03492339427453122,0,0,0,0
-0.0632020786626591,0.07175766276829013,0.05512716972546878,0,0,0,0
-0.0632020786626591,0.07175766276829013,0.05512716972546878,0,0,0,0
-0.0381169146626591,0.028190142768290127,-0.025028492274531227,0,0,0,0
-0.0381169146626591,0.028190142768290127,-0.025028492274531227,0,0,0,0
0.07547027533734088,-0.013389819231709872,0.031195734725468775,0,0,0,0
-0.14712637466265913,0.09171566976829013,0.06065236972546877,0,0,0,0
-0.13611095466265913,0.05904138576829013,0.035502315725468775,0,0,0,0
-0.13611095466265913,0.05904138576829013,0.035502315725468775,0,0,0,0
0.0541821653373409,0.005490130768290129,-0.016757564274531227,0,0,0,0
0.09062539533734089,0.04209656776829013,-0.04763779827453122,0,0,0,0
0.09062539533734089,0.04209656776829013,-0.04763779827453122,0,0,0,0
-0.07568634466265911,0.05510398576829013,-0.006285212974531225,0,0,0,0
0.001993767637340894,0.04094976876829013,0.09265505972546878,0,0,0,0
0.0069643183373408945,0.004453880068290129,0.024381552725468773,0,0,0,0
-0.033048327662659104,-0.02124873923170987,-0.04280000527453122,0,0,0,0
0.07819816533734089,-0.010307305231709873,0.06482953272546878,0,0,0,0
-0.006641181162659106,0.026760989768290132,0.018624184725468777,0,0,0,0
-0.006641181162659106,0.026760989768290132,0.018624184725468777,0,0,0,0
-0.048979934662659104,0.06271116176829013,0.018044982725468776,0,0,0,0
0.022823825337340894,0.05437561576829013,0.011773241725468772,0,0,0,0
0.0679571313373409,0.019129854768290128,-0.05258367227453122,0,0,0,0
0.07368594533734088,0.01641512576829013,-0.054676440274531224,0,0,0,0
0.0306142013373409,0.012205750168290128,-0.012836007774531224,0,0,0,0
0.0306142013373409,0.012205750168290128,-0.012836007774531224,0,0,0,0
-0.08140533466265912,0.020169747768290128,-0.08300674727453124,0,0,0,0
-0.09033201466265911,0.05303749576829013,0.03638839272546878,0,0,0,0
-0.033742220662659105,0.05839265076829013,0.05228820972546878,0,0,0,0
0.03325845533734089,0.047102117768290125,0.05277727972546878,0,0,0,0
0.08210117033734089,0.021425211768290132,-0.10123027727453124,0,0,0,0
0.15054179533734088,0.03056455876829013,0.025808255725468774,0,0,0,0
-0.017768652662659108,0.04955298576829013,0.002877576725468776,0,0,0,0
-0.017768652662659108,0.04955298576829013,0.002877576725468776,0,0,0,0
0.009036652337340894,0.08854997576829013,0.09704972972546878,0,0,0,0
0.0019030733373408939,0.09377817576829013,0.04030836972546877,0,0,0,0
-0.004551776062659106,0.03649587576829013,-0.07934098027453122,0,0,0,0
-0.004551776062659106,0.03649587576829013,-0.07934098027453122,0,0,0,0
0.11225949533734089,0.01818251676829013,0.05238581972546878,0,0,0,0
0.11225949533734089,0.01818251676829013,0.05238581972546878,0,0,0,0
-0.029446584662659106,0.08757870576829013,-0.009281827574531226,0,0,0,0
0.04486304933734089,0.10872405576829013,0.029959235725468773,0,0,0,0
0.027759663337340895,0.09398185576829013,-0.022905804274531226,0,0,0,0
0.027759663337340895,0.09398185576829013,-0.022905804274531226,0,0,0,0
0.005668465337340895,0.08130748876829014,-0.08221799027453122,0,0,0,0
0.005668465337340895,0.08130748876829014,-0.08221799027453122,0,0,0,0
0.09054958033734088,0.012211448768290127,0.021176324725468775,0,0,0,0
-0.04188478766265911,0.010799712768290129,-0.04866380827453122,0,0,0,0
-0.04188478766265911,0.010799712768290129,-0.04866380827453122,0,0,0,0
0.0491402783373409,0.05640299976829013,0.06544100472546877,0,0,0,0
0.053324238337340894,0.05596408576829012,0.028764237725468777,0,0,0,0
0.022492805337340896,0.010715043768290128,0.008387981725468775,0,0,0,0
-0.024144442662659107,0.02041407276829013,0.023284582725468777,0,0,0,0
0.020200078337340895,0.04467094576829013,0.04035548672546878,0,0,0,0
0.051640622337340895,0.03237862376829013,-0.04641533027453122,0,0,0,0
0.0757467453373409,0.07457917576829012,-0.007128967374531225,0,0,0,0
-0.017427714662659105,0.08217275576829013,-0.026303275274531225,0,0,0,0
-0.029067214662659106,0.09503811576829013,0.004595078725468775,0,0,0,0
-0.029067214662659106,0.09503811576829013,0.004595078725468775,0,0,0,0
0.0320441403373409,0.0010490392682901285,0.006130440725468774,0,0,0,0
0.03379470533734089,-0.011575490231709873,0.0016752167254687747,0,0,0,0
0.012055699337340894,0.02741635576829013,0.02145414772546877,0,0,0,0
0.012055699337340894,0.02741635576829013,0.02145414772546877,0,0,0,0
0.006747261837340895,0.11054792576829012,-0.017715479274531223,0,0,0,0
0.0572180913373409,0.03468979576829013,-0.008964718874531225,0,0,0,0
0.05718309133734089,0.03297524776829013,-0.008562453174531226,0,0,0,0
0.05718309133734089,0.03297524776829013,-0.008562453174531226,0,0,0,0
0.05718309133734089,0.03297524776829013,-0.008562453174531226,0,0,0,0
-0.07186668466265911,0.05576268576829013,0.008713154725468773,0,0,0,0
-0.009192450662659106,0.04605719576829013,0.07727773972546878,0,0,0,0
-0.009192450662659106,0.04605719576829013,0.07727773972546878,0,0,0,0
-0.009192450662659106,0.04605719576829013,0.07727773972546878,0,0,0,0
0.1902621453373409,0.10711783576829013,0.03785232972546878,0,0,0,0
-0.03164518666265911,0.009814121268290128,-0.34116528027453125,0,0,0,0
-0.11634901466265912,-0.012679771231709871,0.022586779725468773,0,0,0,0
-0.11634901466265912,-0.012679771231709871,0.022586779725468773,0,0,0,0
-0.21172187466265913,0.07626625576829013,0.19132637972546876,0,0,0,0
-0.005792410962659106,0.08293544076829014,0.19911953972546875,0,0,0,0
0.15890103533734087,0.05959355876829013,0.06993123972546877,0,0,0,0
0.1868588653373409,-0.002694852231709871,-0.27627968027453126,0,0,0,0
0.1868588653373409,-0.002694852231709871,-0.27627968027453126,0,0,0,0
0.12855216533734087,0.14271324576829011,0.07169929972546876,0,0,0,0
-0.2110610346626591,0.13884409576829013,-0.05696431227453123,0,0,0,0
-0.2110610346626591,0.13884409576829013,-0.05696431227453123,0,0,0,0
-0.09356201466265911,-0.04395163623170987,0.10499325972546877,0,0,0,0
0.08312541533734089,0.022561931768290126,0.09785443972546878,0,0,0,0
0.08312541533734089,0.022561931768290126,0.09785443972546878,0,0,0,0
0.2807027953373409,0.0073157577682901286,0.054491559725468784,0,0,0,0
-0.062058909662659104,0.07183072576829014,0.15202610972546876,0,0,0,0
-0.062058909662659104,0.07183072576829014,0.15202610972546876,0,0,0,0
-0.062058909662659104,0.07183072576829014,0.15202610972546876,0,0,0,0
-0.07643726466265911,-0.012615066231709873,0.17742375972546875,0,0,0,0
-0.0701742946626591,-0.021949267231709875,0.12642205972546877,0,0,0,0
0.043949143337340894,-0.0030008199317098708,0.05879656472546877,0,0,0,0
0.1414232453373409,-0.01336319423170987,-0.09169292627453123,0,0,0,0
0.09050723533734088,0.11548065576829013,0.009345604725468772,0,0,0,0
-0.016650088662659105,0.10719669576829012,0.09359543972546877,0,0,0,0
0.08234044533734089,0.010768410768290129,-0.13431562027453123,0,0,0,0
0.08234044533734089,0.010768410768290129,-0.13431562027453123,0,0,0,0
0.0629627393373409,0.021380873768290128,-0.009690342874531226,0,0,0,0
0.0629627393373409,0.021380873768290128,-0.009690342874531226,0,0,0,0
-0.11289747466265912,0.052434975768290135,0.021020023725468778,0,0,0,0
0.09988395533734089,-0.01366486623170987,-0.006413106674531225,0,0,0,0
0.13106776533734088,-0.0018871302317098708,-0.08242655527453123,0,0,0,0
0.12426025533734089,-0.010198271231709872,-0.07459642427453123,0,0,0,0
0.07156392533734088,0.0017401208082901286,-0.004490964274531226,0,0,0,0
-0.1749589746626591,0.02709372676829013,-0.003968285074531225,0,0,0,0
-0.1283922046626591,0.007838611768290128,0.05869397972546878,0,0,0,0
-0.1283922046626591,0.007838611768290128,0.05869397972546878,0,0,0,0
-0.016235907662659105,-0.010948827231709873,0.06342849572546877,0,0,0,0
0.1269272053373409,0.0020027165182901286,-0.014036728274531226,0,0,0,0
0.1269272053373409,0.0020027165182901286,-0.014036728274531226,0,0,0,0
0.1269272053373409,0.0020027165182901286,-0.014036728274531226,0,0,0,0
0.1269272053373409,0.0020027165182901286,-0.014036728274531226,0,0,0,0
-0.15557230466265912,0.016062894768290127,0.04247273972546877,0,0,0,0
-0.15557230466265912,0.016062894768290127,0.04247273972546877,0,0,0,0
-0.1036409246626591,0.008117224768290129,0.046116999725468774,0,0,0,0
0.04469815933734089,-0.00940089623170987,-0.04901452527453122,0,0,0,0
0.09827052533734089,-0.03460349423170987,-0.07123758027453123,0,0,0,0
0.07864991833734089,-0.0026769067317098712,-0.0003130927745312248,0,0,0,0
0.07864991833734089,-0.0026769067317098712,-0.0003130927745312248,0,0,0,0
-0.0448902926626591,0.07205097076829013,-0.015614707774531226,0,0,0,0
-0.008728297362659107,-0.015493163231709873,0.0010457437254687745,0,0,0,0
0.06215087533734089,-0.06864806423170987,-0.007901354174531226,0,0,0,0
0.013677422337340896,-0.007307109231709871,0.02691317672546877,0,0,0,0
0.013677422337340896,-0.007307109231709871,0.02691317672546877,0,0,0,0
-0.018789561662659108,0.01935293276829013,0.050403003725468784,0,0,0,0
-0.0741076306626591,-0.007045010231709871,-0.04198074027453123,0,0,0,0
-0.0741076306626591,-0.007045010231709871,-0.04198074027453123,0,0,0,0
0.030311409337340896,0.031015870768290127,0.028247053725468773,0,0,0,0
0.030311409337340896,0.031015870768290127,0.028247053725468773,0,0,0,0
0.027572743337340895,-0.01076169223170987,-0.07984220527453123,0,0,0,0
0.044384018337340896,-0.03580588423170987,-0.030748267274531227,0,0,0,0
0.044384018337340896,-0.03580588423170987,-0.030748267274531227,0,0,0,0
0.015989319337340893,-0.03594292423170987,0.014008216725468772,0,0,0,0
-0.08924787866265911,0.02555880276829013,0.034507693725468774,0,0,0,0
0.017663781337340895,0.03375300776829013,0.007834671725468773,0,0,0,0
0.03060695333734089,-0.017867082231709873,-0.035031475274531224,0,0,0,0
0.0576669853373409,-0.024465224231709867,0.026842216725468774,0,0,0,0
0.0576669853373409,-0.024465224231709867,0.026842216725468774,0,0,0,0
-0.0695159746626591,-0.019749797231709873,0.02855445572546877,0,0,0,0
-0.0695159746626591,-0.019749797231709873,0.02855445572546877,0,0,0,0
-0.0695159746626591,-0.019749797231709873,0.02855445572546877,0,0,0,0
-0.028829367662659103,-0.015581689231709871,0.014244191725468775,0,0,0,0
-0.028829367662659103,-0.015581689231709871,0.014244191725468775,0,0,0,0
0.07320319533734089,-0.012967386231709873,-0.013505287474531225,0,0,0,0
