acc_x,acc_y,acc_z,gyro_x,gyro_y,gyro_z,label
0.0773237393373409,-0.006900077231709871,-0.019401003274531224,0,0,0,0
0.0773237393373409,-0.006900077231709871,-0.019401003274531224,0,0,0,0
-0.06756714166265912,-0.06480433923170986,0.008514065725468773,0,0,0,0
-0.08875597466265911,-0.0030372615317098717,0.036525349725468774,0,0,0,0
-0.08875597466265911,-0.0030372615317098717,0.036525349725468774,0,0,0,0
-0.055208284662659105,0.060210430768290135,0.0003064977254687738,0,0,0,0
0.06228486533734089,0.06605883576829014,-0.005102254474531226,0,0,0,0
0.009141652337340895,-0.03670274423170987,-0.025310232274531226,0,0,0,0
-0.10799187466265911,-0.04442413423170987,0.02897875972546878,0,0,0,0
-0.10799187466265911,-0.04442413423170987,0.02897875972546878,0,0,0,0
-0.10799187466265911,-0.04442413423170987,0.02897875972546878,0,0,0,0
0.08212377533734089,0.04945297276829013,-0.021706010274531225,0,0,0,0
0.08212377533734089,0.04945297276829013,-0.021706010274531225,0,0,0,0
0.10201617533734089,0.02095691876829013,-0.04581882027453122,0,0,0,0
0.10201617533734089,0.02095691876829013,-0.04581882027453122,0,0,0,0
-0.028944857662659106,0.05044742576829013,0.00041288572546877445,0,0,0,0
-0.028944857662659106,0.05044742576829013,0.00041288572546877445,0,0,0,0
0.021340195337340898,0.09591936576829013,-0.018680121274531225,0,0,0,0
0.021340195337340898,0.09591936576829013,-0.018680121274531225,0,0,0,0
0.06290790533734089,5.833556829012857e-05,-0.05004363227453122,0,0,0,0
0.06290790533734089,5.833556829012857e-05,-0.05004363227453122,0,0,0,0
0.011995999337340895,-0.06034273423170987,-0.015017797274531224,0,0,0,0
-0.1296251146626591,0.027034251768290128,0.02652867972546877,0,0,0,0
-0.0999535396626591,0.10740796576829013,0.02920859272546877,0,0,0,0
-0.0999535396626591,0.10740796576829013,0.02920859272546877,0,0,0,0
0.014497391337340897,0.09319909276829014,0.0038249117254687747,0,0,0,0
0.014497391337340897,0.09319909276829014,0.0038249117254687747,0,0,0,0
0.014497391337340897,0.09319909276829014,0.0038249117254687747,0,0,0,0
-0.020292742662659104,0.0018780385082901286,0.004254416725468775,0,0,0,0
-0.020292742662659104,0.0018780385082901286,0.004254416725468775,0,0,0,0
-0.1275803446626591,0.027399373768290124,0.020204499725468776,0,0,0,0
-0.11826780466265911,0.07145984576829013,-0.013958348274531225,0,0,0,0
-0.05771826066265911,0.10051704576829014,-0.018076773274531225,0,0,0,0
-0.05771826066265911,0.10051704576829014,-0.018076773274531225,0,0,0,0
-0.0032794791626591054,0.06887078976829013,-0.023313851274531228,0,0,0,0
-0.008469946962659106,0.03450654776829013,-0.015643055774531227,0,0,0,0
-0.0913222146626591,0.04082438376829013,0.018487466725468773,0,0,0,0
-0.0913222146626591,0.04082438376829013,0.018487466725468773,0,0,0,0
-0.03466995466265911,0.09295768176829013,-0.005763353474531226,0,0,0,0
0.0322324913373409,0.05352142576829013,-0.03553393027453122,0,0,0,0
0.0322324913373409,0.05352142576829013,-0.03553393027453122,0,0,0,0
-0.06498897866265911,0.03035959576829013,0.012696845725468774,0,0,0,0
-0.1406168746626591,0.03788043876829013,0.038636521725468775,0,0,0,0
-0.1311015946626591,0.042997777768290134,0.04389540972546878,0,0,0,0
-0.1311015946626591,0.042997777768290134,0.04389540972546878,0,0,0,0
0.028195492337340894,0.03315227076829013,0.021344493725468774,0,0,0,0
0.028195492337340894,0.03315227076829013,0.021344493725468774,0,0,0,0
0.028195492337340894,0.03315227076829013,0.021344493725468774,0,0,0,0
0.024377075337340893,0.00854223116829013,0.016463447725468774,0,0,0,0
-0.042501147662659104,-0.014026832231709871,0.02755831672546877,0,0,0,0
-0.09943264466265911,-0.04137065023170987,0.026454503725468776,0,0,0,0
-0.08355234466265912,0.009261163768290129,0.050456486725468784,0,0,0,0
0.058895225337340894,0.09128422576829012,0.0029966457254687754,0,0,0,0
0.058895225337340894,0.09128422576829012,0.0029966457254687754,0,0,0,0
0.058895225337340894,0.09128422576829012,0.0029966457254687754,0,0,0,0
-0.019483454662659105,-0.05078507423170987,-0.014297016274531225,0,0,0,0
-0.019483454662659105,-0.05078507423170987,-0.014297016274531225,0,0,0,0
-0.10260656466265912,-0.04210495623170987,0.016215665725468772,0,0,0,0
-0.10260656466265912,-0.04210495623170987,0.016215665725468772,0,0,0,0
-0.006928141662659105,0.04301013976829013,-0.020246108274531226,0,0,0,0
0.1345026153373409,0.04443976576829013,-0.030208815274531224,0,0,0,0
0.09498311533734088,0.012598081368290128,-0.018931694274531227,0,0,0,0
0.0003555458373408942,-0.02971782623170987,-0.007167370674531225,0,0,0,0
-0.0814708546626591,-0.03399409923170987,0.03379889972546878,0,0,0,0
-0.0814708546626591,-0.03399409923170987,0.03379889972546878,0,0,0,0
-0.1261581246626591,0.0005439256682901283,0.03895888472546878,0,0,0,0
0.0541612783373409,0.06130085576829013,0.012771020725468773,0,0,0,0
-0.014812644162659105,-0.024459964231709874,0.040421419725468775,0,0,0,0
-0.1213910846626591,0.04434878576829013,0.04986132972546878,0,0,0,0
-0.1213910846626591,0.04434878576829013,0.04986132972546878,0,0,0,0
0.08571464533734088,-0.01799211323170987,-0.0019025817745312252,0,0,0,0
0.06323434533734089,-0.028913989231709875,-0.021075316274531228,0,0,0,0
0.06323434533734089,-0.028913989231709875,-0.021075316274531228,0,0,0,0
-0.012695296662659106,-0.010757307231709872,-0.014330686674531225,0,0,0,0
-0.0643268446626591,0.03724342576829013,-0.0011849656745312256,0,0,0,0
0.030775945337340897,-0.013170594231709873,-0.017385812274531225,0,0,0,0
0.030775945337340897,-0.013170594231709873,-0.017385812274531225,0,0,0,0
0.030775945337340897,-0.013170594231709873,-0.017385812274531225,0,0,0,0
0.0477802453373409,-0.05753510423170987,-0.014396800274531225,0,0,0,0
0.002633301337340895,-0.04345137423170987,0.016344143725468774,0,0,0,0
0.054047791337340896,0.04130210876829013,0.05731654972546877,0,0,0,0
0.054047791337340896,0.04130210876829013,0.05731654972546877,0,0,0,0
0.031771865337340895,-0.004035161231709872,0.006650314725468774,0,0,0,0
0.031771865337340895,-0.004035161231709872,0.006650314725468774,0,0,0,0
0.031771865337340895,-0.004035161231709872,0.006650314725468774,0,0,0,0
0.04118901933734089,-0.04842215423170987,0.042740975725468776,0,0,0,0
-0.024906142662659104,-0.009827334731709872,0.016448478725468774,0,0,0,0
-0.024906142662659104,-0.009827334731709872,0.016448478725468774,0,0,0,0
-0.024906142662659104,-0.009827334731709872,0.016448478725468774,0,0,0,0
-0.05893562466265911,-0.01636997523170987,0.016999272725468775,0,0,0,0
-0.05893562466265911,-0.01636997523170987,0.016999272725468775,0,0,0,0
0.0610711253373409,0.0016890619682901286,-0.004515160674531225,0,0,0,0
0.09449350033734089,-0.01830991623170987,-0.023636575274531228,0,0,0,0
0.1055008053373409,-0.04159776423170987,-0.026347000274531227,0,0,0,0
-0.0772238546626591,-0.023074352231709873,-0.001955427274531225,0,0,0,0
-0.12368772466265912,0.03741933776829013,-0.007612837894531225,0,0,0,0
-0.12368772466265912,0.03741933776829013,-0.007612837894531225,0,0,0,0
-0.12368772466265912,0.03741933776829013,-0.007612837894531225,0,0,0,0
0.005516449837340893,-0.01885168023170987,0.022633073725468775,0,0,0,0
0.042043988337340896,-0.05716717823170987,0.013422293725468774,0,0,0,0
0.05652829533734089,-0.059665574231709866,0.02808455672546877,0,0,0,0
0.06283408533734089,-0.037187522231709874,0.07082245972546877,0,0,0,0
0.054984585337340894,0.02681745476829013,0.08295532972546878,0,0,0,0
-0.011049159162659104,0.07122182876829013,0.04470362472546878,0,0,0,0
-0.033018954662659104,0.04747717376829013,0.035445324725468776,0,0,0,0
-0.010326941662659106,-0.013954761231709871,0.041670541725468774,0,0,0,0
-0.010326941662659106,-0.013954761231709871,0.041670541725468774,0,0,0,0
-0.010326941662659106,-0.013954761231709871,0.041670541725468774,0,0,0,0
0.0810638593373409,0.009599864768290129,-0.03875417527453122,0,0,0,0
-0.00023496926265910607,0.01592465376829013,-0.0067366406745312255,0,0,0,0
-0.06969898466265911,0.00017877416829012883,-0.009723953974531225,0,0,0,0
0.07412330533734088,-0.04528320423170987,-0.008881016074531225,0,0,0,0
0.07412330533734088,-0.04528320423170987,-0.008881016074531225,0,0,0,0
0.07412330533734088,-0.04528320423170987,-0.008881016074531225,0,0,0,0
-0.017665179662659104,0.06085962576829013,0.05971706972546879,0,0,0,0
-0.017665179662659104,0.06085962576829013,0.05971706972546879,0,0,0,0
0.005040757337340894,0.07045066976829013,0.058403469725468775,0,0,0,0
0.010382382337340897,-0.08614155023170987,0.008749802725468773,0,0,0,0
-0.010470946662659106,-0.12902498423170988,0.02665241972546877,0,0,0,0
-0.010470946662659106,-0.12902498423170988,0.02665241972546877,0,0,0,0
-0.024366457662659102,-0.09246661023170986,0.011987642725468772,0,0,0,0
0.0490096253373409,0.07883876576829013,0.011442461725468773,0,0,0,0
0.043018165337340895,0.007406738768290129,-0.014326714274531225,0,0,0,0
0.043018165337340895,0.007406738768290129,-0.014326714274531225,0,0,0,0
-0.020085795662659105,-0.05571864423170987,-0.016609971274531225,0,0,0,0
-0.07984140466265911,-0.06926880423170988,0.005011374725468775,0,0,0,0
-0.08847893066265912,-0.0037197242317098715,0.03056205372546877,0,0,0,0
-0.08179586466265912,0.04302446276829013,0.033936555725468776,0,0,0,0
-0.0026954490126591055,0.03983326576829013,0.008023883725468774,0,0,0,0
0.0443468253373409,0.0032716263682901286,0.003055621725468774,0,0,0,0
0.0443468253373409,0.0032716263682901286,0.003055621725468774,0,0,0,0
0.023971955337340894,-0.019840457231709872,0.005052466725468775,0,0,0,0
-0.045013792662659105,-0.02983312223170987,0.008365943725468773,0,0,0,0
-0.12238100466265911,-0.03024781423170987,0.0044860047254687745,0,0,0,0
-0.1334193046626591,0.0053258110682901285,0.030962682725468777,0,0,0,0
-0.04711206766265911,0.07376967076829012,-0.0012707162745312249,0,0,0,0
0.015139977337340894,0.01742488776829013,0.007105132725468776,0,0,0,0
0.015139977337340894,0.01742488776829013,0.007105132725468776,0,0,0,0
0.031534020337340894,-0.058580764231709874,0.009626817725468775,0,0,0,0
0.019792573337340896,-0.07031155823170987,0.009009269725468776,0,0,0,0
0.019792573337340896,-0.07031155823170987,0.009009269725468776,0,0,0,0
-0.019070799662659104,0.03784089576829013,0.04339060972546877,0,0,0,0
-0.0027117568626591057,0.027176934768290133,0.06737524972546877,0,0,0,0
-0.0027117568626591057,0.027176934768290133,0.06737524972546877,0,0,0,0
-0.0027117568626591057,0.027176934768290133,0.06737524972546877,0,0,0,0
0.023269383337340896,-0.025407034231709875,0.009226419725468775,0,0,0,0
0.023269383337340896,-0.025407034231709875,0.009226419725468775,0,0,0,0
-0.005471594962659105,-0.06433748423170986,0.026952807725468774,0,0,0,0
-0.05146721166265911,-0.021008711231709873,0.010958242725468772,0,0,0,0
-0.05146721166265911,-0.021008711231709873,0.010958242725468772,0,0,0,0
-0.0021307784626591053,0.06316150576829013,-0.024019430274531225,0,0,0,0
0.07606021533734089,0.06584016576829013,-0.036824493274531224,0,0,0,0
0.1022867353373409,0.028413755768290132,-0.034412525274531224,0,0,0,0
0.037749305337340895,-0.004681701231709872,-0.011501954574531226,0,0,0,0
-0.04451187466265911,-0.04324570823170987,0.002089407725468774,0,0,0,0
-0.09180916166265911,-0.062080669231709865,0.008431702725468775,0,0,0,0
-0.019845278662659102,0.05984016076829013,0.001261256725468775,0,0,0,0
0.023617569337340896,0.03635389876829013,0.004863489725468775,0,0,0,0
0.023617569337340896,0.03635389876829013,0.004863489725468775,0,0,0,0
0.020147721337340895,-0.021986706231709875,-0.0060335174745312255,0,0,0,0
0.014401070337340893,-0.04490879123170987,0.009828534725468775,0,0,0,0
0.014850251337340897,0.02663324076829013,0.048472563725468786,0,0,0,0
0.014850251337340897,0.02663324076829013,0.048472563725468786,0,0,0,0
0.033540455337340895,-0.006639440231709872,-0.009698994474531226,0,0,0,0
-0.09039848466265911,-0.012906625231709871,0.021977529725468774,0,0,0,0
0.08668786533734088,0.03782318276829013,-0.012168718874531224,0,0,0,0
0.1478756153373409,0.019621169768290127,-0.024170590274531226,0,0,0,0
0.1478756153373409,0.019621169768290127,-0.024170590274531226,0,0,0,0
0.025499265337340895,0.013023935768290128,0.0005925057254687746,0,0,0,0
0.025499265337340895,0.013023935768290128,0.0005925057254687746,0,0,0,0
-0.0448225816626591,0.0022019808082901285,0.04084402772546877,0,0,0,0
-0.0448225816626591,0.0022019808082901285,0.04084402772546877,0,0,0,0
0.10198032533734089,0.01849324776829013,0.009097006725468773,0,0,0,0
0.10198032533734089,0.01849324776829013,0.009097006725468773,0,0,0,0
0.10198032533734089,0.01849324776829013,0.009097006725468773,0,0,0,0
0.1319143453373409,-0.016810998231709874,-0.004526151774531226,0,0,0,0
0.005684201337340894,0.0058916275682901285,0.034089699725468776,0,0,0,0
0.005679814337340894,0.006095949268290129,0.03376944172546877,0,0,0,0
0.005679814337340894,0.006095949268290129,0.03376944172546877,0,0,0,0
0.1219192653373409,0.07180722576829013,0.011148269725468774,0,0,0,0
0.1219192653373409,0.07180722576829013,0.011148269725468774,0,0,0,0
0.1219192653373409,0.07180722576829013,0.011148269725468774,0,0,0,0
0.0345767183373409,-0.03379305223170987,-0.003245989974531225,0,0,0,0
-0.0442039326626591,-0.02817471623170987,0.013279552725468775,0,0,0,0
0.0313797153373409,0.01097092076829013,0.021630792725468775,0,0,0,0
