acc_x,acc_y,acc_z,gyro_x,gyro_y,gyro_z,label
0.062012021337340885,0.10254369576829013,-0.023091562274531227,0,0,0,0
-0.030198080662659103,-0.041513884231709874,0.010197017725468775,0,0,0,0
-0.030198080662659103,-0.041513884231709874,0.010197017725468775,0,0,0,0
-0.030198080662659103,-0.041513884231709874,0.010197017725468775,0,0,0,0
-0.1479546346626591,0.04887061776829013,0.03798325972546878,0,0,0,0
-0.09225834466265911,0.029222643768290132,0.034614539725468775,0,0,0,0
-0.09225834466265911,0.029222643768290132,0.034614539725468775,0,0,0,0
-0.09225834466265911,0.029222643768290132,0.034614539725468775,0,0,0,0
0.10901366533734089,-0.07876169023170987,0.0014177307254687752,0,0,0,0
0.0007340593373408944,-0.00889767923170987,0.011950002725468773,0,0,0,0
0.0007340593373408944,-0.00889767923170987,0.011950002725468773,0,0,0,0
-0.07596805866265911,0.13788368576829013,0.05861764372546877,0,0,0,0
0.011041466337340895,0.12533888576829014,0.03879685572546878,0,0,0,0
0.11222068533734089,0.04979679076829013,-0.016239507274531224,0,0,0,0
0.10926229533734089,-0.09830270423170988,-0.03571004427453122,0,0,0,0
0.031085698337340893,-0.16464239423170987,-0.020799531274531227,0,0,0,0
-0.1516255246626591,-0.023948740231709877,0.013781715725468775,0,0,0,0
-0.13592413466265912,0.08209630876829013,-0.011428423274531226,0,0,0,0
0.07113000533734089,0.04426750576829013,-0.027882887274531226,0,0,0,0
0.07113000533734089,0.04426750576829013,-0.027882887274531226,0,0,0,0
0.1073891753373409,-0.02217474523170987,-0.058217825274531225,0,0,0,0
0.1073891753373409,-0.02217474523170987,-0.058217825274531225,0,0,0,0
-0.0556909396626591,-0.08127891423170987,-0.051273407274531224,0,0,0,0
-0.1386871146626591,0.04795739076829013,0.03868000972546878,0,0,0,0
-0.1386871146626591,0.04795739076829013,0.03868000972546878,0,0,0,0
-0.1386871146626591,0.04795739076829013,0.03868000972546878,0,0,0,0
0.017151371337340893,0.04958156976829013,0.002831809225468774,0,0,0,0
0.09560500533734088,-0.008884352231709872,-0.005978102974531226,0,0,0,0
0.09560500533734088,-0.008884352231709872,-0.005978102974531226,0,0,0,0
-0.1600492346626591,-0.024707537231709875,0.05929317972546878,0,0,0,0
-0.1600492346626591,-0.024707537231709875,0.05929317972546878,0,0,0,0
-0.14918287466265912,0.023710544768290133,0.054653819725468775,0,0,0,0
-0.0501549546626591,0.019769111768290125,0.043740739725468776,0,0,0,0
0.06086522533734089,-0.003007486031709871,-0.0019908442745312253,0,0,0,0
0.11055394533734089,-0.014721011231709871,0.0028864667254687735,0,0,0,0
0.0693327113373409,0.0033736859682901286,0.0012341307254687744,0,0,0,0
0.010449330337340895,0.047668665768290125,0.06762640972546877,0,0,0,0
-0.026654990662659105,0.11326803576829013,0.05005837572546878,0,0,0,0
-0.0849078946626591,0.06871846976829013,-0.008101619824531225,0,0,0,0
-0.0849078946626591,0.06871846976829013,-0.008101619824531225,0,0,0,0
-0.0367987476626591,-0.11750085423170988,0.04523407672546878,0,0,0,0
-0.0367987476626591,-0.11750085423170988,0.04523407672546878,0,0,0,0
-0.0367987476626591,-0.11750085423170988,0.04523407672546878,0,0,0,0
0.0984757553373409,0.11327449576829013,-0.027497275274531226,0,0,0,0
0.0984757553373409,0.11327449576829013,-0.027497275274531226,0,0,0,0
0.09089338033734089,0.04374608776829013,-0.054981793274531225,0,0,0,0
-0.039594634662659105,0.02561544176829013,-0.023225768274531225,0,0,0,0
-0.039594634662659105,0.02561544176829013,-0.023225768274531225,0,0,0,0
-0.08141411166265912,0.07527072576829014,0.019987173725468776,0,0,0,0
-0.09698150966265912,-0.06928843823170987,-0.03745619227453122,0,0,0,0
-0.018436701662659104,-0.13666279423170988,0.02564616372546877,0,0,0,0
-0.08189266466265911,-0.05383970123170987,0.026533357725468772,0,0,0,0
-0.022021372662659106,0.08008850276829013,0.10536361972546876,0,0,0,0
0.1715958753373409,0.11200658576829013,0.016166446725468773,0,0,0,0
0.2734686053373409,0.06277700576829012,-0.05005601827453122,0,0,0,0
-0.06689060466265911,-0.04143389423170987,-0.03540346227453122,0,0,0,0
-0.07844799466265912,-0.11759777423170986,0.06289751372546877,0,0,0,0
-0.07844799466265912,-0.11759777423170986,0.06289751372546877,0,0,0,0
-0.09583271466265911,-0.05401534423170987,0.04911846372546878,0,0,0,0
-0.09583271466265911,-0.05401534423170987,0.04911846372546878,0,0,0,0
0.19856882533734088,-0.06188882423170987,-0.027402647274531226,0,0,0,0
0.0546420253373409,-0.04389935123170987,-0.034908254274531224,0,0,0,0
-0.07135179866265912,0.030031681768290124,-0.008846588474531226,0,0,0,0
-0.12538250466265913,0.035072919768290134,-0.006428535324531226,0,0,0,0
-0.09675844466265912,0.03808811976829013,0.0010826277254687754,0,0,0,0
0.07431794533734089,0.03833493376829013,-0.007336534604531225,0,0,0,0
0.07431794533734089,0.03833493376829013,-0.007336534604531225,0,0,0,0
0.1930125353373409,0.01857528476829013,-0.034932520274531226,0,0,0,0
0.1448585653373409,-0.003213732931709871,-0.035633416274531225,0,0,0,0
-0.17759464466265912,0.046783757768290135,0.007620210725468775,0,0,0,0
-0.15117042466265912,0.03761523576829013,0.04283309472546878,0,0,0,0
0.05101768233734089,-0.01923407523170987,-0.028711797274531225,0,0,0,0
0.0833422823373409,-0.028794196231709875,-0.0015001432745312248,0,0,0,0
-0.059665184662659104,0.06729456576829014,0.05843211972546878,0,0,0,0
-0.0038320380626591056,0.03034568776829013,0.0065460937254687756,0,0,0,0
0.061094395337340894,-0.027143064231709875,-0.015009726274531225,0,0,0,0
0.06963216533734089,-0.07051146423170987,-0.04515036527453122,0,0,0,0
0.006896607337340895,-0.014277240231709872,-0.008034451344531224,0,0,0,0
-0.04509390166265911,0.029895192768290134,0.026529729725468774,0,0,0,0
-0.08244903866265911,0.04784638976829013,-0.001378388774531225,0,0,0,0
-0.016084273662659104,0.03399050276829013,-0.016229333274531226,0,0,0,0
-0.020247443662659105,0.0028051500082901283,0.03055544972546877,0,0,0,0
-0.020247443662659105,0.0028051500082901283,0.03055544972546877,0,0,0,0
-0.03524835866265911,0.06398752576829013,0.03194199372546878,0,0,0,0
-0.015989668662659107,0.03800353776829013,-0.00019034327453122495,0,0,0,0
0.07431718533734089,-0.08320402423170987,-0.027214248274531228,0,0,0,0
0.07431718533734089,-0.08320402423170987,-0.027214248274531228,0,0,0,0
0.07431718533734089,-0.08320402423170987,-0.027214248274531228,0,0,0,0
-0.1104552146626591,0.04983575076829013,0.005625180725468775,0,0,0,0
-0.1104552146626591,0.04983575076829013,0.005625180725468775,0,0,0,0
-0.0845224246626591,0.03403048276829013,0.001376758725468775,0,0,0,0
-0.0537249406626591,0.01886704876829013,-0.030410827274531226,0,0,0,0
0.06666442533734089,-0.017258334231709874,-0.03977200527453122,0,0,0,0
0.06666442533734089,-0.017258334231709874,-0.03977200527453122,0,0,0,0
0.011822239337340897,-0.04323816823170987,-0.025409426274531226,0,0,0,0
-0.07355936466265911,-0.029008656231709867,-0.010852260974531226,0,0,0,0
-0.12039612466265912,0.003972644068290129,-0.0004142716745312259,0,0,0,0
-0.12039612466265912,0.003972644068290129,-0.0004142716745312259,0,0,0,0
-0.08676222166265911,0.05066419276829013,0.017452459725468775,0,0,0,0
-0.011168845662659105,0.04199953576829013,-0.006888319574531225,0,0,0,0
0.044888989337340895,-0.05028533923170987,-0.022333611274531224,0,0,0,0
-0.009739859662659105,-0.022301322231709872,0.009454966725468774,0,0,0,0
-0.0840078196626591,0.07750818176829012,0.026363955725468773,0,0,0,0
0.0411587873373409,0.0012705449682901286,0.018501029725468774,0,0,0,0
0.0411587873373409,0.0012705449682901286,0.018501029725468774,0,0,0,0
0.0411587873373409,0.0012705449682901286,0.018501029725468774,0,0,0,0
0.0415218513373409,-0.02945663423170987,-0.030803568274531224,0,0,0,0
-0.049001391662659106,-0.007481181231709872,-0.0026697710745312254,0,0,0,0
-0.07562874166265912,0.05902037076829013,-0.009963960974531226,0,0,0,0
0.007834832337340895,0.04432631176829013,-0.0052665069745312255,0,0,0,0
0.08078204533734089,0.016160071768290128,-0.018514050274531225,0,0,0,0
0.10487643533734088,-0.01253998423170987,-0.03542485427453122,0,0,0,0
-0.0073266822626591056,-0.048150814231709874,-0.03501738427453122,0,0,0,0
-0.0073266822626591056,-0.048150814231709874,-0.03501738427453122,0,0,0,0
-0.08433931466265912,0.03156216576829013,0.016773242725468773,0,0,0,0
-0.08433931466265912,0.03156216576829013,0.016773242725468773,0,0,0,0
0.025031201337340894,-0.012153117231709872,-0.025092669274531226,0,0,0,0
0.10229913533734089,-0.06728799923170987,-0.014746107274531225,0,0,0,0
0.07813083533734089,-0.10546810423170987,-0.017855765274531227,0,0,0,0
-0.012645991662659107,-0.07817115423170988,0.011803634725468772,0,0,0,0
-0.1045145846626591,-0.00484963463170987,0.02522098972546877,0,0,0,0
-0.0791257696626591,0.047740590768290125,0.015419490725468773,0,0,0,0
-0.0791257696626591,0.047740590768290125,0.015419490725468773,0,0,0,0
0.044509427337340896,-0.051398504231709864,-0.025836302274531226,0,0,0,0
0.044509427337340896,-0.051398504231709864,-0.025836302274531226,0,0,0,0
-0.1309994546626591,-0.02783753423170987,0.0037053152254687754,0,0,0,0
-0.12393167466265911,0.03903317576829013,0.014836542725468773,0,0,0,0
-0.0800771546626591,0.057583325768290124,-0.005714835274531226,0,0,0,0
0.036118332337340894,0.02615636076829013,-0.005262239274531225,0,0,0,0
0.036118332337340894,0.02615636076829013,-0.005262239274531225,0,0,0,0
0.036118332337340894,0.02615636076829013,-0.005262239274531225,0,0,0,0
0.11123763533734088,-0.05132245423170987,-0.03892708027453122,0,0,0,0
-0.038645346662659105,-0.08146005423170986,-0.026597698274531224,0,0,0,0
-0.1433126246626591,-0.01854384223170987,0.014032362725468771,0,0,0,0
-0.1433126246626591,-0.01854384223170987,0.014032362725468771,0,0,0,0
-0.13948086466265913,0.04641287976829013,0.028752256725468776,0,0,0,0
-0.13948086466265913,0.04641287976829013,0.028752256725468776,0,0,0,0
0.08872710833734089,-0.06975435423170988,-0.015863247274531225,0,0,0,0
0.08872710833734089,-0.06975435423170988,-0.015863247274531225,0,0,0,0
-0.004172881262659105,-0.10478010423170986,-0.007972551924531225,0,0,0,0
-0.0845317676626591,-0.03957812123170987,0.03611349272546878,0,0,0,0
-0.1396098946626591,0.01403691376829013,0.029745007725468776,0,0,0,0
0.022248855337340896,-0.012151887231709872,-0.009125520374531225,0,0,0,0
0.0666365783373409,-0.11169970423170987,-0.033059825274531225,0,0,0,0
0.0666365783373409,-0.11169970423170987,-0.033059825274531225,0,0,0,0
0.0666365783373409,-0.11169970423170987,-0.033059825274531225,0,0,0,0
-0.1298632446626591,-0.03091773023170987,-0.002868743274531225,0,0,0,0
-0.09686830866265911,0.005726850468290128,0.003412704125468774,0,0,0,0
0.10603801533734089,-0.05378033423170987,-0.027116407274531226,0,0,0,0
0.10603801533734089,-0.05378033423170987,-0.027116407274531226,0,0,0,0
0.0330797353373409,-0.11559298423170987,-0.014145805274531225,0,0,0,0
-0.049329646662659106,-0.10045313423170986,0.022723616725468774,0,0,0,0
-0.049329646662659106,-0.10045313423170986,0.022723616725468774,0,0,0,0
-0.11275251466265912,0.016536003768290126,0.025222209725468774,0,0,0,0
-0.044659502662659105,0.009696370768290129,0.026071987725468777,0,0,0,0
0.02753602533734089,-0.12508655423170986,-0.004661352974531225,0,0,0,0
-0.12841823466265911,-0.04268246223170987,0.030252377725468776,0,0,0,0
-0.1283725546626591,-0.040880965231709865,0.02912980172546877,0,0,0,0
0.0515841653373409,-0.048224874231709874,-0.044754584274531224,0,0,0,0
0.0515841653373409,-0.048224874231709874,-0.044754584274531224,0,0,0,0
-0.049493104662659104,-0.09171616423170986,-0.013921637874531226,0,0,0,0
-0.14965723466265912,-0.033008098231709866,-0.016969980274531227,0,0,0,0
-0.04958084466265911,0.0031868998682901286,-0.014507152274531225,0,0,0,0
-0.04958084466265911,0.0031868998682901286,-0.014507152274531225,0,0,0,0
0.0771217503373409,-0.05619477423170987,-0.038085253274531224,0,0,0,0
0.019693485337340895,-0.08574061923170988,-0.011748738674531224,0,0,0,0
0.019693485337340895,-0.08574061923170988,-0.011748738674531224,0,0,0,0
-0.12243574466265912,0.037207532768290134,-0.006099398474531226,0,0,0,0
