acc_x,acc_y,acc_z,gyro_x,gyro_y,gyro_z,label
-0.017893298662659107,0.008815668768290128,0.06415592972546877,0,0,0,0
-0.017893298662659107,0.008815668768290128,0.06415592972546877,0,0,0,0
-0.056349738662659105,-0.006225803231709872,0.03564809372546878,0,0,0,0
-0.056349738662659105,-0.006225803231709872,0.03564809372546878,0,0,0,0
-0.045373328662659106,0.009456509768290128,0.029174165725468774,0,0,0,0
-0.0575852246626591,0.04117380976829013,-0.026167549274531226,0,0,0,0
-0.042714961662659104,0.05227846576829012,-0.061295560274531216,0,0,0,0
0.021958081337340896,-0.005917700631709872,-0.039481610274531224,0,0,0,0
-0.040767939662659104,-0.06160483923170987,-0.012931461674531224,0,0,0,0
-0.040767939662659104,-0.06160483923170987,-0.012931461674531224,0,0,0,0
-0.04999216466265911,-0.02506848223170987,0.0034196597254687747,0,0,0,0
-0.06947925866265911,0.05828589276829013,-0.14414278027453123,0,0,0,0
0.06458045533734089,0.006597292768290129,0.019809949725468776,0,0,0,0
0.06458045533734089,0.006597292768290129,0.019809949725468776,0,0,0,0
-0.0628907996626591,-0.004678016231709871,-0.08334396027453123,0,0,0,0
-0.14891127466265913,0.0064243617682901285,-0.12161852027453122,0,0,0,0
-0.06557453466265911,-0.01904574123170987,0.07208526572546878,0,0,0,0
-0.0459149196626591,0.03480985576829013,0.05267644372546878,0,0,0,0
-0.0384715876626591,0.023155307768290133,-0.08337745027453122,0,0,0,0
0.014704243337340897,0.0027663652682901286,0.06427569972546877,0,0,0,0
-0.058609087662659105,0.02193970676829013,0.09377878972546877,0,0,0,0
-0.058609087662659105,0.02193970676829013,0.09377878972546877,0,0,0,0
-0.003968985692659106,0.02952522376829013,0.013370917725468775,0,0,0,0
-0.003968985692659106,0.02952522376829013,0.013370917725468775,0,0,0,0
-0.0362026046626591,0.047676175768290134,0.048678843725468775,0,0,0,0
-0.07120722166265911,0.0035791431682901287,0.016387046725468774,0,0,0,0
-0.008869250462659106,-0.022526365231709873,-0.028553976274531226,0,0,0,0
-0.008869250462659106,-0.022526365231709873,-0.028553976274531226,0,0,0,0
-0.08900993466265911,0.0031348471682901284,0.07904983972546878,0,0,0,0
-0.08900993466265911,0.0031348471682901284,0.07904983972546878,0,0,0,0
-0.0034524756626591055,0.053242111768290135,-0.11353107027453123,0,0,0,0
0.023056523337340897,0.02899935876829013,-0.18292335027453122,0,0,0,0
0.023056523337340897,0.02899935876829013,-0.18292335027453122,0,0,0,0
0.023056523337340897,0.02899935876829013,-0.18292335027453122,0,0,0,0
-0.1445114946626591,0.013488133768290129,0.08631041972546877,0,0,0,0
-0.1445114946626591,0.013488133768290129,0.08631041972546877,0,0,0,0
-0.10872162466265911,0.05263221876829013,0.07592954472546877,0,0,0,0
-0.036721117662659106,0.02745838176829013,-0.06392439027453123,0,0,0,0
0.08176204533734088,-0.0012499730317098714,-0.09519287027453123,0,0,0,0
0.04199773533734089,-0.021194180231709873,0.02464441172546877,0,0,0,0
-0.0530100666626591,-0.01640022423170987,0.029668964725468778,0,0,0,0
-0.0530100666626591,-0.01640022423170987,0.029668964725468778,0,0,0,0
-0.1394025646626591,0.06901865076829013,0.03790884972546878,0,0,0,0
-0.1394025646626591,0.06901865076829013,0.03790884972546878,0,0,0,0
-0.08648165066265912,0.08039245076829013,0.0032153117254687747,0,0,0,0
0.06894704533734089,-0.052736764231709865,-0.04390264327453122,0,0,0,0
-0.016738398662659106,0.03469409076829013,0.059161249725468774,0,0,0,0
-0.10247686466265911,0.03620633576829013,-0.06096724027453122,0,0,0,0
-0.0915508106626591,0.03116723376829013,-0.08832771327453123,0,0,0,0
0.005586163337340894,-0.026696520231709875,0.06317790972546877,0,0,0,0
0.024936787337340893,0.030636310768290126,-0.12486752027453124,0,0,0,0
-0.019492896662659107,0.037848550768290135,-0.024178602274531228,0,0,0,0
-0.16055706466265912,-0.030488052231709868,0.04357274972546878,0,0,0,0
-0.16055706466265912,-0.030488052231709868,0.04357274972546878,0,0,0,0
-0.1485055746626591,-0.01174640723170987,0.07017556972546876,0,0,0,0
-0.03010042466265911,0.005827594268290128,0.08768790972546878,0,0,0,0
0.1014673353373409,-0.012299600231709873,-0.2200066802745312,0,0,0,0
-0.019828875662659104,-0.02898609623170987,0.05917936972546877,0,0,0,0
-0.15232628466265913,-0.023729896231709874,0.09703966972546876,0,0,0,0
-0.1197643146626591,0.007482637768290129,0.08931088972546877,0,0,0,0
-0.025590308662659104,0.04949783976829013,0.08015610472546877,0,0,0,0
-0.004080184112659106,-0.012186756231709872,-0.20354534027453122,0,0,0,0
0.06616536533734088,-0.012186756231709872,-0.20354534027453122,0,0,0,0
0.07704021133734089,-0.04695820723170987,0.03904971972546877,0,0,0,0
-0.09615200466265911,-0.053390198231709866,0.09439908972546876,0,0,0,0
-0.10991075466265912,0.02494569776829013,0.10496777972546877,0,0,0,0
-0.007792266062659106,0.019955253768290125,0.023046792725468772,0,0,0,0
-0.014415915662659106,-0.02751253823170987,-0.2764897202745312,0,0,0,0
-0.019519694662659105,-0.03030696723170987,0.09237751972546876,0,0,0,0
-0.15726402466265912,-0.02409034023170987,0.09878317972546877,0,0,0,0
-0.1618673146626591,0.0064801250682901285,0.08469894972546878,0,0,0,0
-0.1618673146626591,0.0064801250682901285,0.08469894972546878,0,0,0,0
0.013575665337340895,0.011790681768290128,-0.22061513027453122,0,0,0,0
0.08065253933734089,0.04052250576829013,-0.06944578427453123,0,0,0,0
0.0281903423373409,0.022380231768290126,0.038530836725468774,0,0,0,0
0.0281903423373409,0.022380231768290126,0.038530836725468774,0,0,0,0
-0.12234257466265912,-0.06390931423170987,0.023970691725468774,0,0,0,0
-0.03348663666265911,0.07253331576829013,0.06580305572546877,0,0,0,0
0.1439693653373409,-0.018661564231709872,-0.029873128274531226,0,0,0,0
0.1439693653373409,-0.018661564231709872,-0.029873128274531226,0,0,0,0
0.11198999533734089,-0.017797028231709873,-0.015195895774531225,0,0,0,0
-0.009828169962659106,0.007295561268290129,0.031348527725468776,0,0,0,0
-0.12734688466265912,0.009381720768290129,0.025033529725468778,0,0,0,0
-0.12734688466265912,0.009381720768290129,0.025033529725468778,0,0,0,0
-0.08844269066265911,0.012885666768290128,0.08588015272546877,0,0,0,0
0.10697490533734089,0.011636104768290129,0.019988523725468773,0,0,0,0
0.1564684053373409,-0.033478581231709874,-0.18555160027453121,0,0,0,0
0.12989522533734088,0.011351325768290128,-0.06775143027453123,0,0,0,0
-0.0026717978626591057,0.056704640768290134,0.050265995725468776,0,0,0,0
-0.10340669966265911,0.027852729768290133,0.04249085672546878,0,0,0,0
-0.04003628066265911,0.023585018768290132,-0.028145398274531226,0,0,0,0
0.08169213933734089,0.03923965576829013,-0.06924745627453123,0,0,0,0
0.08169213933734089,0.03923965576829013,-0.06924745627453123,0,0,0,0
0.20183717533734089,0.01540875476829013,-0.10801090027453122,0,0,0,0
-0.1386490646626591,-0.018753656231709874,0.05403510972546877,0,0,0,0
-0.20382850466265912,-0.0016781936317098716,0.08753096272546877,0,0,0,0
-0.20382850466265912,-0.0016781936317098716,0.08753096272546877,0,0,0,0
-0.20382850466265912,-0.0016781936317098716,0.08753096272546877,0,0,0,0
0.1028344353373409,0.005880813768290128,-0.08745426727453123,0,0,0,0
0.1028344353373409,0.005880813768290128,-0.08745426727453123,0,0,0,0
0.1588911253373409,-0.07803405423170988,-0.10360174027453123,0,0,0,0
0.1588911253373409,-0.07803405423170988,-0.10360174027453123,0,0,0,0
-0.1516932346626591,-0.002664136431709871,0.07112389972546877,0,0,0,0
-0.2556709146626591,0.06130135576829013,0.04240265372546878,0,0,0,0
-0.2172389746626591,0.07953040076829013,0.004248927725468776,0,0,0,0
-0.07648990966265912,0.062315291768290135,-0.05525774527453122,0,0,0,0
0.1226505453373409,-0.09877365423170986,-0.06746694027453122,0,0,0,0
0.0022913140373408943,-0.09093676423170986,-0.030157377274531227,0,0,0,0
-0.2392468746626591,0.06814063576829013,0.09992790972546878,0,0,0,0
-0.2392468746626591,0.06814063576829013,0.09992790972546878,0,0,0,0
0.1382458853373409,-0.06111235023170987,0.02272525572546877,0,0,0,0
0.1382458853373409,-0.06111235023170987,0.02272525572546877,0,0,0,0
0.11982099533734089,-0.05865505423170987,-0.005970384274531225,0,0,0,0
0.11982099533734089,-0.05865505423170987,-0.005970384274531225,0,0,0,0
-0.1149125846626591,-0.0027171517317098708,-0.03555012027453122,0,0,0,0
-0.23029712466265911,0.08361313976829013,0.07839961972546877,0,0,0,0
-0.23029712466265911,0.08361313976829013,0.07839961972546877,0,0,0,0
-0.23029712466265911,0.08361313976829013,0.07839961972546877,0,0,0,0
0.05954448533734089,-0.005880963231709871,0.017871849725468774,0,0,0,0
0.1367307853373409,-0.049407237231709866,-0.09087921027453123,0,0,0,0
0.1367307853373409,-0.049407237231709866,-0.09087921027453123,0,0,0,0
0.1353260253373409,-0.07290908423170987,-0.10502475627453123,0,0,0,0
0.09432307933734088,-0.04677709923170987,0.04461518972546878,0,0,0,0
-0.08142269466265911,0.018436578768290128,0.09450254972546877,0,0,0,0
-0.22983048466265912,0.08510612576829013,0.04325675972546878,0,0,0,0
-0.019578536662659105,-0.03316957623170987,0.031182287725468775,0,0,0,0
-0.019578536662659105,-0.03316957623170987,0.031182287725468775,0,0,0,0
0.1393029353373409,-0.008759939231709871,-0.021034164274531225,0,0,0,0
-0.03272188466265911,-0.01196148223170987,-0.13189119027453122,0,0,0,0
-0.24298094466265913,0.02988473176829013,-0.07784461027453124,0,0,0,0
-0.1374869146626591,0.08058978576829014,0.1768239297254688,0,0,0,0
-0.023029311662659105,0.04705138276829013,0.10327984972546876,0,0,0,0
-0.023029311662659105,0.04705138276829013,0.10327984972546876,0,0,0,0
0.18747178533734088,-0.019050155231709873,-0.12248426027453121,0,0,0,0
-0.2091646946626591,0.02340995376829013,0.11159192972546877,0,0,0,0
0.10793286533734088,-0.013308894231709872,-0.06280492027453123,0,0,0,0
0.011104885337340897,-0.07131383923170986,-0.021124120274531227,0,0,0,0
0.09086467533734088,-0.01060396123170987,-0.049864997274531225,0,0,0,0
0.15001422533734088,-0.060645084231709875,-0.09250914627453123,0,0,0,0
-0.018481047662659105,-0.012348669231709871,-0.05688399827453122,0,0,0,0
-0.017137129662659106,0.006729219168290129,0.027470339725468775,0,0,0,0
0.1254591153373409,-0.02409998423170987,-0.13969503027453123,0,0,0,0
0.16692191533734088,-0.0009422506317098714,-0.055236698274531225,0,0,0,0
-0.0448345026626591,-0.06101782823170987,-0.048545560274531226,0,0,0,0
