acc_x,acc_y,acc_z,gyro_x,gyro_y,gyro_z,label
0.024153915337340893,-0.030723318231709873,-0.010856349774531225,0,0,0,0
0.024153915337340893,-0.030723318231709873,-0.010856349774531225,0,0,0,0
0.024153915337340893,-0.030723318231709873,-0.010856349774531225,0,0,0,0
-0.06302507466265911,-0.12735777423170988,0.03693345972546878,0,0,0,0
-0.05492304166265911,0.02253814076829013,0.07907555972546877,0,0,0,0
-0.05492304166265911,0.02253814076829013,0.07907555972546877,0,0,0,0
-0.05492304166265911,0.02253814076829013,0.07907555972546877,0,0,0,0
0.10271531533734088,0.07369835976829013,-0.12051191027453122,0,0,0,0
0.10271531533734088,0.07369835976829013,-0.12051191027453122,0,0,0,0
-0.07330196466265912,-0.04706132423170987,0.043353729725468776,0,0,0,0
-0.07330196466265912,-0.04706132423170987,0.043353729725468776,0,0,0,0
-0.0015141326626591056,-0.04393734423170987,0.04271794972546878,0,0,0,0
0.06925946933734088,0.10417445576829013,-0.054256864274531226,0,0,0,0
0.06925946933734088,0.10417445576829013,-0.054256864274531226,0,0,0,0
0.025906197337340894,0.09463800576829014,0.05638144472546878,0,0,0,0
0.025906197337340894,0.09463800576829014,0.05638144472546878,0,0,0,0
-0.07318409466265911,-0.005621465231709871,-0.08568550027453123,0,0,0,0
-0.07318409466265911,-0.005621465231709871,-0.08568550027453123,0,0,0,0
-0.0454036546626591,0.012446748768290128,0.06852289972546877,0,0,0,0
-0.029712470662659106,0.020679535768290132,-0.005277080874531225,0,0,0,0
0.08495818533734088,0.024980622768290127,-0.034687480274531224,0,0,0,0
0.04856082533734089,0.029418868768290134,-0.13746743027453123,0,0,0,0
0.024280659337340894,0.0020430189482901285,-0.011178942074531226,0,0,0,0
-0.0386055786626591,-0.012543958231709873,0.06908075972546876,0,0,0,0
-0.05247982466265911,0.06126590576829013,0.021833799725468776,0,0,0,0
0.07923490233734089,0.08506100176829014,-0.14884121027453123,0,0,0,0
0.08377839533734088,-0.01343263623170987,0.028802239725468772,0,0,0,0
0.035978142337340896,0.07859928576829013,-0.09515919027453122,0,0,0,0
-0.004856093562659106,-0.030649319231709868,-0.014367039274531226,0,0,0,0
-0.13267467466265911,-0.05662997423170987,0.10714213972546877,0,0,0,0
0.05800782833734089,0.03710179576829013,-0.12310273027453124,0,0,0,0
-0.1767682846626591,-0.017445174231709874,0.11891357972546879,0,0,0,0
-0.1334081446626591,-0.018025459231709874,0.06704667972546877,0,0,0,0
0.19948779533734087,-0.0013971842317098719,-0.0023303942745312254,0,0,0,0
0.06730071533734089,0.013698152168290128,-0.13793408027453125,0,0,0,0
0.06730071533734089,0.013698152168290128,-0.13793408027453125,0,0,0,0
0.1556238353373409,-0.011474868231709871,-0.03851124827453122,0,0,0,0
0.1556238353373409,-0.011474868231709871,-0.03851124827453122,0,0,0,0
-0.08950327466265912,0.0034156228682901287,0.010926334725468775,0,0,0,0
-0.008413298662659106,-0.05161480423170987,0.027787451725468777,0,0,0,0
-0.1369266346626591,0.014241845768290129,0.09264090972546878,0,0,0,0
0.09616195533734088,-0.059346484231709865,-0.013344426474531226,0,0,0,0
-0.1221980846626591,0.03619578776829013,0.018803165725468772,0,0,0,0
-0.10954445466265912,0.04131865276829013,-0.006278426974531225,0,0,0,0
-0.10954445466265912,0.04131865276829013,-0.006278426974531225,0,0,0,0
0.05385820133734089,-0.07845856423170987,-0.10685893027453122,0,0,0,0
-0.006204970462659106,-0.08932026423170987,0.011017982725468774,0,0,0,0
-0.08295715466265911,0.06755690576829013,0.07941066472546877,0,0,0,0
-0.08295715466265911,0.06755690576829013,0.07941066472546877,0,0,0,0
-0.08295715466265911,0.06755690576829013,0.07941066472546877,0,0,0,0
0.15234004533734088,-0.05334741423170987,0.05352102372546878,0,0,0,0
-0.1113515746626591,0.04279328576829013,0.006942455725468776,0,0,0,0
0.1990305153373409,-0.10406385423170987,0.056723503725468784,0,0,0,0
-0.017275317662659107,0.04661439076829013,-0.024090738274531225,0,0,0,0
-0.03513382266265911,-0.03251318623170987,0.06864967972546877,0,0,0,0
0.1066423553373409,-0.04136234823170987,-0.08097115027453124,0,0,0,0
-0.1303624946626591,-0.031093060231709872,0.014960054725468776,0,0,0,0
0.0777354403373409,-0.01083344323170987,0.030112842725468773,0,0,0,0
0.0321540053373409,0.03165042776829013,-0.07830036427453123,0,0,0,0
-0.047996314662659106,0.004780862168290129,0.04569748472546878,0,0,0,0
0.003177658937340894,-0.01842886423170987,-0.0036752537745312246,0,0,0,0
-0.028198034662659105,-0.014497430231709874,-0.06269110027453123,0,0,0,0
-0.010603697662659107,0.01954740476829013,-0.058654520274531226,0,0,0,0
0.03169385533734089,-0.030173608231709864,0.005897746725468773,0,0,0,0
0.0598494693373409,0.06630690576829014,-0.038470800274531224,0,0,0,0
-0.06136692466265911,-0.06059101823170987,0.04507215972546878,0,0,0,0
0.016339032337340895,-0.03317249423170987,-0.04071613027453123,0,0,0,0
-0.021289904662659107,0.011797608168290128,0.029827359725468777,0,0,0,0
-0.012597544662659107,-0.030623072231709875,-0.03364300327453122,0,0,0,0
0.0022528809373408946,-0.02215279723170987,-0.04305433827453122,0,0,0,0
-0.010779650662659106,0.03854994776829013,0.016459004725468775,0,0,0,0
-0.018697722662659105,0.01828176676829013,-0.021596117274531226,0,0,0,0
-0.0020952063626591055,-0.026843207231709867,0.007113609725468774,0,0,0,0
0.013209263337340894,0.02358738576829013,-0.008337242944531226,0,0,0,0
-0.00018680866265910565,0.003989740168290129,-0.020089407274531224,0,0,0,0
-0.00018680866265910565,0.003989740168290129,-0.020089407274531224,0,0,0,0
0.008982007337340895,-0.04873881423170987,-0.08247660027453123,0,0,0,0
0.032215325337340894,-0.06441635423170987,-0.028593202274531226,0,0,0,0
0.019589631337340895,-0.04351005823170987,0.07340376972546878,0,0,0,0
-0.010050948262659107,-0.03291688423170987,0.018781546725468775,0,0,0,0
0.04406663533734089,-0.029347354231709866,-0.028408785274531227,0,0,0,0
-0.014846308662659107,0.025482258768290127,0.016278384725468772,0,0,0,0
-0.10991342466265912,0.058823855768290134,-0.08985343727453124,0,0,0,0
-0.0010042983626591057,-0.055043488231709875,-0.010427434774531225,0,0,0,0
0.04376432133734089,-0.06516446423170986,0.07277054972546877,0,0,0,0
-0.009291060662659105,0.09423761576829012,-0.11832445027453123,0,0,0,0
0.0844590353373409,0.05313105076829013,0.040645871725468775,0,0,0,0
-0.0371929006626591,-0.10128677423170988,-0.05911757527453122,0,0,0,0
-0.06539371766265911,0.053932925768290126,-0.016944082274531227,0,0,0,0
0.028020302337340895,0.0031980369682901287,0.021172873725468774,0,0,0,0
-0.08042352966265912,0.04348427576829013,-0.03957537027453122,0,0,0,0
-0.1478849246626591,0.08058888576829012,0.046686619725468774,0,0,0,0
0.07495414533734089,-0.04216282023170987,-0.15451687027453123,0,0,0,0
0.07495414533734089,-0.04216282023170987,-0.15451687027453123,0,0,0,0
-0.15852564466265912,0.03354787276829013,-0.012955255874531224,0,0,0,0
-0.08856571466265911,0.014882686768290127,-0.036721678274531225,0,0,0,0
0.021515005337340895,0.01039510576829013,0.05187055972546877,0,0,0,0
0.06832381933734089,0.03037438776829013,-0.022684915274531224,0,0,0,0
-0.014079936162659106,0.019536152768290127,0.05329680272546878,0,0,0,0
-0.021020205662659105,-0.0036901484317098717,0.06495099472546877,0,0,0,0
-0.021020205662659105,-0.0036901484317098717,0.06495099472546877,0,0,0,0
-0.014787467162659104,0.02323752076829013,-0.007579751354531226,0,0,0,0
-0.014787467162659104,0.02323752076829013,-0.007579751354531226,0,0,0,0
-0.012350257062659107,-0.021354894231709873,0.07178176972546876,0,0,0,0
-0.012350257062659107,-0.021354894231709873,0.07178176972546876,0,0,0,0
0.001183716637340894,0.008846707768290128,-0.008686544074531226,0,0,0,0
0.001183716637340894,0.008846707768290128,-0.008686544074531226,0,0,0,0
0.0677835653373409,0.04892477576829013,-0.03787746027453122,0,0,0,0
0.005389611337340895,0.06620596076829012,0.00025874222546877577,0,0,0,0
0.043864361337340896,-0.022917354231709874,-0.016836597274531226,0,0,0,0
0.043864361337340896,-0.022917354231709874,-0.016836597274531226,0,0,0,0
0.032016485337340896,-0.003692893231709872,-0.007215769634531226,0,0,0,0
0.032016485337340896,-0.003692893231709872,-0.007215769634531226,0,0,0,0
-0.0013515311626591058,-0.006283144231709871,-0.011636741474531226,0,0,0,0
0.0620137353373409,0.04001233576829013,0.009433869725468776,0,0,0,0
0.022488325337340895,0.04146013876829013,-0.015472729274531225,0,0,0,0
0.022488325337340895,0.04146013876829013,-0.015472729274531225,0,0,0,0
-0.03981016466265911,0.02745218576829013,-0.0021795882745312247,0,0,0,0
-0.09646938466265911,0.016049713768290126,0.010116879725468774,0,0,0,0
-0.1160693046626591,0.008133124268290128,-0.042179592274531226,0,0,0,0
-0.015937884662659104,0.004325548268290128,0.043771019725468784,0,0,0,0
0.052877442337340895,-4.302223170987111e-05,0.021281186725468772,0,0,0,0
-0.008225806362659106,0.05412693076829014,0.025994305725468774,0,0,0,0
-0.05983417766265911,0.06656573576829013,-0.021822269274531226,0,0,0,0
0.022542875337340895,-0.028768741231709867,0.031425449725468776,0,0,0,0
0.024711339337340894,0.0033581052682901285,-0.001424677674531226,0,0,0,0
0.002278344037340894,-0.02428215123170987,0.06801704572546877,0,0,0,0
0.002278344037340894,-0.02428215123170987,0.06801704572546877,0,0,0,0
0.0622215453373409,-0.019896310231709867,0.06027698372546878,0,0,0,0
0.0622215453373409,-0.019896310231709867,0.06027698372546878,0,0,0,0
-0.035369094662659105,-0.01417717123170987,0.005550359725468774,0,0,0,0
-0.035369094662659105,-0.01417717123170987,0.005550359725468774,0,0,0,0
0.02848798533734089,-0.05626882423170987,0.053914349725468776,0,0,0,0
0.09352485533734088,-0.057732034231709875,0.021019385725468773,0,0,0,0
0.09352485533734088,-0.057732034231709875,0.021019385725468773,0,0,0,0
0.04327604033734089,0.01491050876829013,-0.057932223274531215,0,0,0,0
-0.030761702662659107,0.05964528576829013,0.018514762725468772,0,0,0,0
-0.030761702662659107,0.05964528576829013,0.018514762725468772,0,0,0,0
-0.020302947662659106,0.0013444577682901284,-0.07217836527453123,0,0,0,0
-0.0560876686626591,0.018820259768290125,-0.009187538974531225,0,0,0,0
-0.0560876686626591,0.018820259768290125,-0.009187538974531225,0,0,0,0
-0.03862074166265911,0.015112987768290129,-0.028807367274531225,0,0,0,0
-0.0473290286626591,0.005674010968290129,-0.022949458274531223,0,0,0,0
0.017744175337340896,-0.04858171923170987,-0.008062274794531225,0,0,0,0
0.040394703337340895,-0.02843693423170987,-0.015751834274531223,0,0,0,0
0.024361340337340893,0.02873550376829013,-0.008303268274531225,0,0,0,0
0.024361340337340893,0.02873550376829013,-0.008303268274531225,0,0,0,0
-0.0586376986626591,0.04080298576829013,-0.052160770274531226,0,0,0,0
-0.0586376986626591,0.04080298576829013,-0.052160770274531226,0,0,0,0
-0.0654207046626591,0.0004707132682901286,-0.06246326727453123,0,0,0,0
-0.029882510662659106,-0.030024964231709868,0.07301114672546877,0,0,0,0
-0.04295376166265911,-0.04147914023170987,0.08130415972546877,0,0,0,0
-0.04295376166265911,-0.04147914023170987,0.08130415972546877,0,0,0,0
0.037008873337340896,0.07827902576829013,-0.11852359027453122,0,0,0,0
0.0482702413373409,0.07210659576829014,-0.022051401274531226,0,0,0,0
0.0482702413373409,0.07210659576829014,-0.022051401274531226,0,0,0,0
-0.0294908366626591,0.04052770776829013,0.07362815972546877,0,0,0,0
-0.0650959806626591,-0.09921456423170986,-0.03416772627453123,0,0,0,0
-0.0650959806626591,-0.09921456423170986,-0.03416772627453123,0,0,0,0
-0.0640398846626591,-0.0019215579317098715,0.06736051272546877,0,0,0,0
-0.0640398846626591,-0.0019215579317098715,0.06736051272546877,0,0,0,0
0.0517646953373409,-0.009942048231709872,-0.18555667027453124,0,0,0,0
0.0529454393373409,-0.011917350231709872,0.017013184725468773,0,0,0,0
-0.034887297662659106,-0.01582788923170987,0.09781725972546876,0,0,0,0
-0.034887297662659106,-0.01582788923170987,0.09781725972546876,0,0,0,0
-0.09053133466265911,-0.015306730231709873,0.10371583972546877,0,0,0,0
-0.06426475866265911,0.01190141976829013,0.06696484972546876,0,0,0,0
-0.048984797662659105,0.05599383576829013,-0.15973314027453123,0,0,0,0
0.004921452337340894,-0.05769094423170987,-0.039696254274531224,0,0,0,0
0.06605102533734089,-0.054573364231709866,0.06828464972546877,0,0,0,0
0.08155872033734088,-0.11667775423170987,-0.04870478027453122,0,0,0,0
-0.0741303286626591,0.06916047976829012,0.07802025972546876,0,0,0,0
0.012906949337340896,0.03773372176829013,-0.12214068027453123,0,0,0,0
0.012906949337340896,0.03773372176829013,-0.12214068027453123,0,0,0,0
0.0583608783373409,-0.1261627942317099,0.07401318972546878,0,0,0,0
0.018042675337340896,0.004449934268290129,0.07896204472546878,0,0,0,0
0.019104973337340896,0.16374041576829013,-0.020945199274531225,0,0,0,0
0.019104973337340896,0.16374041576829013,-0.020945199274531225,0,0,0,0
0.044314400337340895,0.05709434176829013,-0.07045765027453123,0,0,0,0
0.0472113753373409,-0.04464426623170987,0.008545390725468775,0,0,0,0
0.0472113753373409,-0.04464426623170987,0.008545390725468775,0,0,0,0
0.013508335337340895,-0.09312298823170988,0.06456509972546877,0,0,0,0
-0.0020925360626591056,0.011882977768290129,0.053990272725468774,0,0,0,0
0.018659894337340895,0.07049936076829012,-0.07305626027453123,0,0,0,0
0.018659894337340895,0.07049936076829012,-0.07305626027453123,0,0,0,0
0.09985248533734088,-0.007710517231709872,-0.029386516274531226,0,0,0,0
-0.002295477962659106,-0.07130498423170988,0.06973530972546878,0,0,0,0
-0.002295477962659106,-0.07130498423170988,0.06973530972546878,0,0,0,0
-0.07462776466265911,-0.08582000423170986,0.06743105972546877,0,0,0,0
0.0610802813373409,0.08123527176829012,0.06117650972546878,0,0,0,0
0.10392877533734088,0.11769564576829013,-0.22779651027453124,0,0,0,0
-0.04409845666265911,-0.024767100231709867,0.019189421725468774,0,0,0,0
-0.04409845666265911,-0.024767100231709867,0.019189421725468774,0,0,0,0
-0.1716812946626591,-0.04103654023170987,0.024233613725468773,0,0,0,0
-0.015748293662659105,0.04686342776829013,0.09598997972546877,0,0,0,0
-0.015748293662659105,0.04686342776829013,0.09598997972546877,0,0,0,0
0.07359925933734088,0.11573118576829013,0.021357063725468774,0,0,0,0
0.12387086533734087,0.06824982576829013,-0.2510292602745312,0,0,0,0
0.015534417337340897,-0.01631728023170987,0.05711746672546878,0,0,0,0
-0.1884400646626591,-0.042127257231709875,0.07844736972546877,0,0,0,0
-0.028359015662659106,-0.027262657231709876,0.12592316972546877,0,0,0,0
-0.028359015662659106,-0.027262657231709876,0.12592316972546877,0,0,0,0
-0.25180967466265913,0.06463072976829012,0.11855691972546878,0,0,0,0
0.1725924653373409,0.011005200768290127,0.012790421725468775,0,0,0,0
0.09683467533734089,-0.08997634023170986,-0.09100541027453123,0,0,0,0
0.09683467533734089,-0.08997634023170986,-0.09100541027453123,0,0,0,0
0.044741932337340896,0.01920648276829013,-0.05973254627453122,0,0,0,0
0.15277787533734088,-0.018409518231709873,-0.10041931427453124,0,0,0,0
0.1256236253373409,-0.02273033423170987,0.005241559725468774,0,0,0,0
0.1256236253373409,-0.02273033423170987,0.005241559725468774,0,0,0,0
-0.1997452146626591,0.07419926576829013,-0.03513405427453122,0,0,0,0
0.04427215233734089,-0.02261141223170987,0.04982667372546878,0,0,0,0
0.08841783233734088,-0.047336628231709865,0.014260671725468774,0,0,0,0
-0.11456650466265912,0.02148766676829013,0.044549195725468775,0,0,0,0
0.05896217033734089,0.03614507976829013,-0.017330749274531224,0,0,0,0
0.0586301013373409,-0.012940321231709871,-0.020269961274531224,0,0,0,0
0.03613807333734089,-0.017739130231709872,0.04832174972546877,0,0,0,0
-0.08536766466265912,0.0021712054382901284,7.327672546877505e-05,0,0,0,0
-0.08536766466265912,0.0021712054382901284,7.327672546877505e-05,0,0,0,0
0.09485561033734088,0.02786974076829013,0.005543927725468773,0,0,0,0
0.09485561033734088,0.02786974076829013,0.005543927725468773,0,0,0,0
-0.036510642662659104,0.02150622576829013,-0.06124290027453123,0,0,0,0
-0.0612265446626591,-0.0016240950317098716,0.08018614972546877,0,0,0,0
0.07174293233734089,-0.027522420231709872,-0.10208450027453123,0,0,0,0
0.07174293233734089,-0.027522420231709872,-0.10208450027453123,0,0,0,0
-0.048710711662659105,-0.02172486723170987,0.0005678997254687746,0,0,0,0
-0.025183566662659106,-0.06893933423170988,0.04143942172546878,0,0,0,0
0.006824414337340895,0.03214019876829013,0.043345019725468774,0,0,0,0
0.006824414337340895,0.03214019876829013,0.043345019725468774,0,0,0,0
0.030904690337340897,0.04167614576829013,-0.19280065027453122,0,0,0,0
-0.0935053646626591,0.02730117576829013,0.06238517972546879,0,0,0,0
-0.041613371662659104,-0.08492769423170987,-0.030849690274531227,0,0,0,0
0.06558124533734089,-0.08455556023170988,0.030344961725468775,0,0,0,0
0.0807655493373409,0.02366144376829013,-0.025851084274531227,0,0,0,0
-0.07314747166265911,-0.011145987231709871,0.06406848272546876,0,0,0,0
-0.07314747166265911,-0.011145987231709871,0.06406848272546876,0,0,0,0
-0.06282327966265912,-0.057837564231709875,0.07483619972546876,0,0,0,0
-0.06282327966265912,-0.057837564231709875,0.07483619972546876,0,0,0,0
0.09326011533734088,0.024021539768290127,-0.12334696027453124,0,0,0,0
0.09496871533734089,0.01716930576829013,-0.10972039027453123,0,0,0,0
0.034589497337340895,0.020855389768290128,0.04719251972546878,0,0,0,0
0.034589497337340895,0.020855389768290128,0.04719251972546878,0,0,0,0
-0.1051063346626591,-0.04087389023170987,0.044513129725468774,0,0,0,0
-0.041324122662659106,-0.005985243231709871,0.09053844672546876,0,0,0,0
0.0519567653373409,0.027574992768290132,-0.11878849027453123,0,0,0,0
0.12781163533734088,-0.0012440095317098718,-0.14869908027453124,0,0,0,0
0.12781163533734088,-0.0012440095317098718,-0.14869908027453124,0,0,0,0
-0.09527681466265911,-0.041801589231709874,0.07580416672546877,0,0,0,0
-0.1413809646626591,-0.050767308231709864,0.11159870972546879,0,0,0,0
-0.008294566262659106,-0.017289632231709873,0.12378171972546878,0,0,0,0
-0.008294566262659106,-0.017289632231709873,0.12378171972546878,0,0,0,0
0.11743680533734088,0.013183510768290128,-0.18393083027453122,0,0,0,0
-0.1424430646626591,-0.025721040231709874,0.10443872972546876,0,0,0,0
-0.1424430646626591,-0.025721040231709874,0.10443872972546876,0,0,0,0
-0.06455543866265911,-0.01132400423170987,0.10459607972546878,0,0,0,0
-0.0029283362626591055,-0.02679656123170987,-0.3043931802745312,0,0,0,0
0.1170295853373409,-0.007245647231709873,0.008019678725468774,0,0,0,0
0.1170295853373409,-0.007245647231709873,0.008019678725468774,0,0,0,0
-0.012681182062659106,0.12279557576829013,0.12761975972546877,0,0,0,0
-0.012681182062659106,0.12279557576829013,0.12761975972546877,0,0,0,0
0.0784081623373409,0.14339031576829012,0.05864482372546879,0,0,0,0
0.028649441337340896,-0.045653646231709866,-0.4070739602745312,0,0,0,0
0.005142704837340895,-0.06665688423170987,0.11228767972546877,0,0,0,0
-0.1771218146626591,-0.10466341423170987,0.14195789972546877,0,0,0,0
-0.16496399466265912,-0.08885282823170987,0.21132031972546875,0,0,0,0
0.017998616337340897,-0.04561865923170987,0.18892639972546876,0,0,0,0
0.1844427253373409,0.07009544976829013,-0.036054440274531224,0,0,0,0
0.1844427253373409,0.07009544976829013,-0.036054440274531224,0,0,0,0
0.11165038533734088,0.01927171376829013,-0.41183851027453117,0,0,0,0
0.011783902337340894,-0.01249599723170987,0.04844193972546878,0,0,0,0
0.1444062353373409,0.014615851768290129,-0.10237476427453122,0,0,0,0
0.1645169453373409,-0.006528643831709872,0.027157919725468774,0,0,0,0
0.0462701003373409,-0.03108525823170987,0.08359993572546877,0,0,0,0
-0.0617053846626591,0.04052305876829013,0.05530007372546878,0,0,0,0
-0.0617053846626591,0.04052305876829013,0.05530007372546878,0,0,0,0
-0.014346297662659106,0.04387316176829013,-0.004130728574531225,0,0,0,0
0.10805093533734089,-0.05017027423170987,-0.06325884627453122,0,0,0,0
-0.1144110546626591,-0.03419879623170987,0.04922812472546877,0,0,0,0
-0.15962551466265912,-0.018393708231709875,0.08113593972546877,0,0,0,0
-0.15962551466265912,-0.018393708231709875,0.08113593972546877,0,0,0,0
0.08044492533734089,0.07027829576829013,-0.033212442274531226,0,0,0,0
0.08044492533734089,0.07027829576829013,-0.033212442274531226,0,0,0,0
0.08044492533734089,0.07027829576829013,-0.033212442274531226,0,0,0,0
0.11629449533734089,0.05080389376829013,-0.09185384027453122,0,0,0,0
-0.09649904466265911,-0.004170098231709871,0.014343671725468774,0,0,0,0
-0.09649904466265911,-0.004170098231709871,0.014343671725468774,0,0,0,0
-0.03817728466265911,-0.0025248150317098714,-0.015301163274531224,0,0,0,0
0.04190932933734089,0.021885725768290128,0.010843024725468772,0,0,0,0
0.06305400533734089,-0.011964407231709872,-0.014352901274531225,0,0,0,0
0.06305400533734089,-0.011964407231709872,-0.014352901274531225,0,0,0,0
-0.055888734662659104,-0.006431905231709872,0.04015049172546877,0,0,0,0
-0.0460279306626591,0.0037936334682901287,0.07764517472546877,0,0,0,0
-0.012104971662659104,0.02039466876829013,-0.04260413227453123,0,0,0,0
0.06634742533734089,0.010762068768290127,-0.022237868274531225,0,0,0,0
0.06634742533734089,0.010762068768290127,-0.022237868274531225,0,0,0,0
-0.0598453346626591,0.039718729768290134,-0.07490756027453123,0,0,0,0
-0.13924511466265913,0.004478985568290128,0.09940224972546877,0,0,0,0
-0.07282875466265912,-0.0027115982317098717,0.06673624372546877,0,0,0,0
-0.07282875466265912,-0.0027115982317098717,0.06673624372546877,0,0,0,0
0.1377533153373409,-0.0044750152317098715,-0.16868808027453122,0,0,0,0
-0.0014809447626591057,-0.012556350231709873,0.06291288572546877,0,0,0,0
-0.1574224346626591,-0.02284536923170987,0.11544685972546877,0,0,0,0
-0.1003500776626591,0.0030206893682901284,0.049020439725468774,0,0,0,0
-0.1003500776626591,0.0030206893682901284,0.049020439725468774,0,0,0,0
0.005171315337340895,0.01836114576829013,-0.026280184274531226,0,0,0,0
0.0961310553373409,-0.0003640408317098715,-0.09459612027453122,0,0,0,0
0.025275628337340896,-0.005338380731709872,0.04041802772546878,0,0,0,0
-0.12287462466265911,-0.04945604723170987,0.08347741972546877,0,0,0,0
-0.12287462466265911,-0.04945604723170987,0.08347741972546877,0,0,0,0
0.10868598533734089,0.02963689576829013,0.018930648725468773,0,0,0,0
0.1410102053373409,0.0007422541182901285,-0.039995648274531226,0,0,0,0
0.1410102053373409,0.0007422541182901285,-0.039995648274531226,0,0,0,0
0.059935775337340895,-0.016757806231709874,-0.09666182527453124,0,0,0,0
-0.1174624246626591,-0.02280214123170987,-0.0030487732745312253,0,0,0,0
0.057242125337340896,-0.010612553231709872,0.045267043725468775,0,0,0,0
0.18471366533734088,-0.007397010231709871,0.020205084725468773,0,0,0,0
0.18471366533734088,-0.007397010231709871,0.020205084725468773,0,0,0,0
0.008117596337340893,0.02038508276829013,-0.04982396527453122,0,0,0,0
0.008117596337340893,0.02038508276829013,-0.04982396527453122,0,0,0,0
0.008117596337340893,0.02038508276829013,-0.04982396527453122,0,0,0,0
-0.1102793546626591,-0.0027916784317098715,0.056029729725468776,0,0,0,0
-0.1902233446626591,-0.02747992423170987,0.09168083472546877,0,0,0,0
-0.037373144662659105,0.01876508076829013,0.03754294372546878,0,0,0,0
0.1153410153373409,0.026274140768290127,-0.14089031027453125,0,0,0,0
0.22263576533734092,0.007653085768290129,-0.1368876302745312,0,0,0,0
0.05901748533734089,-0.01895633923170987,0.006332276725468776,0,0,0,0
-0.08717306466265912,-0.04134879023170987,-0.015545494874531225,0,0,0,0
-0.16521404466265913,-0.020035628231709873,0.04969310572546878,0,0,0,0
-0.16521404466265913,-0.020035628231709873,0.04969310572546878,0,0,0,0
0.1767447653373409,-0.06040896723170987,-0.16464587027453123,0,0,0,0
0.1726432053373409,-0.05364341423170987,-0.05910483027453122,0,0,0,0
0.1726432053373409,-0.05364341423170987,-0.05910483027453122,0,0,0,0
0.1726432053373409,-0.05364341423170987,-0.05910483027453122,0,0,0,0
-0.1183783346626591,0.07840396576829013,-0.04591152827453122,0,0,0,0
-0.1183783346626591,0.07840396576829013,-0.04591152827453122,0,0,0,0
-0.018316157662659104,0.01915445976829013,-0.028631074274531227,0,0,0,0
-0.018316157662659104,0.01915445976829013,-0.028631074274531227,0,0,0,0
0.10657426533734089,-0.046436089231709866,-0.05141573727453123,0,0,0,0
0.0016627473373408948,-0.021513417231709873,-0.027798481274531227,0,0,0,0
-0.10161741466265911,-0.01228443023170987,0.05147332372546878,0,0,0,0
-0.17110012466265911,0.005490588068290128,0.07748431972546878,0,0,0,0
0.056249255337340896,0.024625028768290126,0.015355597725468774,0,0,0,0
0.056249255337340896,0.024625028768290126,0.015355597725468774,0,0,0,0
0.1523865853373409,-0.003714696631709872,-0.08667446027453123,0,0,0,0
0.06786452933734088,0.009480417268290128,0.0058553147254687766,0,0,0,0
-0.0470391116626591,0.02317488876829013,0.018938545725468773,0,0,0,0
-0.0470391116626591,0.02317488876829013,0.018938545725468773,0,0,0,0
-0.1251522846626591,0.014698414768290128,0.007360975725468775,0,0,0,0
0.07471753533734089,-0.06379528023170987,0.06547929472546878,0,0,0,0
0.10278855533734088,-0.011903586231709872,-0.006049652474531226,0,0,0,0
0.0999435553373409,0.010613718368290129,-0.10147512727453123,0,0,0,0
0.0783506553373409,0.035902035768290125,-0.023383482274531228,0,0,0,0
0.037734525337340896,-0.04836728423170986,-0.08543685027453123,0,0,0,0
0.07489997533734088,-0.03861618023170987,-0.012779076274531224,0,0,0,0
-0.007840521962659105,-0.03558642223170987,-0.030433328274531227,0,0,0,0
-0.045526106662659105,-0.003469985231709872,-0.04412738827453123,0,0,0,0
-0.019032748662659103,-0.011200464231709872,-0.00015866327453122574,0,0,0,0
4.0451837340894914e-05,-0.07153136123170988,0.010846952725468772,0,0,0,0
0.011441247337340893,-0.08171827423170987,0.04599454972546878,0,0,0,0
0.025251785337340894,-0.024845074231709875,0.011869863725468773,0,0,0,0
0.025251785337340894,-0.024845074231709875,0.011869863725468773,0,0,0,0
0.025251785337340894,-0.024845074231709875,0.011869863725468773,0,0,0,0
0.060011785337340896,0.026341245768290132,-0.052147038274531224,0,0,0,0
-0.015764220662659107,0.034390929768290134,-0.018326123274531224,0,0,0,0
-0.015764220662659107,0.034390929768290134,-0.018326123274531224,0,0,0,0
-0.015764220662659107,0.034390929768290134,-0.018326123274531224,0,0,0,0
-0.023573477662659104,-0.057344554231709866,0.04822513272546877,0,0,0,0
-0.012657816662659107,-0.04687158423170987,-0.0026546314745312253,0,0,0,0
-0.021473963662659107,0.01578898776829013,-0.023035045274531225,0,0,0,0
-0.021473963662659107,0.01578898776829013,-0.023035045274531225,0,0,0,0
-0.009243567662659106,0.030072450768290127,0.010483781725468776,0,0,0,0
-0.009243567662659106,0.030072450768290127,0.010483781725468776,0,0,0,0
0.042575852337340896,-0.08780618423170987,-0.010330756074531225,0,0,0,0
0.059129255337340904,-0.07914087723170987,0.034335903725468776,0,0,0,0
0.059129255337340904,-0.07914087723170987,0.034335903725468776,0,0,0,0
0.019375245337340894,-0.06439660723170987,-0.0030861810745312253,0,0,0,0
-0.035676176662659105,-0.03548381423170987,-0.06309010527453122,0,0,0,0
-0.06536577466265911,-0.007729601231709871,0.006240735725468775,0,0,0,0
-0.06536577466265911,-0.007729601231709871,0.006240735725468775,0,0,0,0
-0.0762633146626591,0.018322625768290128,0.06197805972546878,0,0,0,0
-0.0565756646626591,0.011313771168290129,-0.008174558024531226,0,0,0,0
0.029592148337340897,-0.020521894231709872,-0.04895513827453122,0,0,0,0
0.059022728337340895,-0.03021809123170987,-0.029279251274531227,0,0,0,0
0.059022728337340895,-0.03021809123170987,-0.029279251274531227,0,0,0,0
-0.0370096046626591,0.029138270768290127,0.04726797972546878,0,0,0,0
-0.0370096046626591,0.029138270768290127,0.04726797972546878,0,0,0,0
0.1271044853373409,-0.06555055923170987,0.029876814725468773,0,0,0,0
0.1271044853373409,-0.06555055923170987,0.029876814725468773,0,0,0,0
0.08712541533734089,0.009393820768290128,-0.03756695527453122,0,0,0,0
0.08712541533734089,0.009393820768290128,-0.03756695527453122,0,0,0,0
-0.09510372466265912,0.006479949168290129,0.11107116972546877,0,0,0,0
-0.09510372466265912,0.006479949168290129,0.11107116972546877,0,0,0,0
-0.07425220766265911,-0.0016799475317098717,0.08055504972546877,0,0,0,0
0.025753037337340898,-0.03347390423170987,0.05088208972546878,0,0,0,0
0.10831348533734089,-0.05173656423170987,-0.11776400027453124,0,0,0,0
0.0515203653373409,-0.020663553231709868,0.05404294572546878,0,0,0,0
-0.07018917466265912,-0.02274360023170987,0.05949331972546878,0,0,0,0
-0.08995798466265911,-0.029288580231709868,0.018799786725468774,0,0,0,0
-0.0015588599626591058,-0.021019759231709872,0.03669706972546878,0,0,0,0
-0.0015588599626591058,-0.021019759231709872,0.03669706972546878,0,0,0,0
0.07040673933734089,0.025108049768290126,-0.06712727027453122,0,0,0,0
0.10479261533734088,0.03108560176829013,-0.061271660274531216,0,0,0,0
0.10479261533734088,0.03108560176829013,-0.061271660274531216,0,0,0,0
0.047991675337340896,0.03534963176829013,-0.011431284274531226,0,0,0,0
-0.08109415466265911,0.01302039976829013,0.02430696972546877,0,0,0,0
0.06509114933734089,0.008459783068290129,-0.03822916327453123,0,0,0,0
0.07351123533734089,0.010184884768290128,-0.031436129274531224,0,0,0,0
0.07351123533734089,0.010184884768290128,-0.031436129274531224,0,0,0,0
-0.09600265766265911,0.02173754876829013,0.006197713725468775,0,0,0,0
-0.09600265766265911,0.02173754876829013,0.006197713725468775,0,0,0,0
-0.1360060546626591,0.06700856176829013,0.007533935725468775,0,0,0,0
-0.1360060546626591,0.06700856176829013,0.007533935725468775,0,0,0,0
-0.04163521066265911,0.08459531076829013,0.03708011372546878,0,0,0,0
0.06953345933734088,-0.019638478231709867,-0.10335811027453123,0,0,0,0
0.0590527693373409,0.006368864068290129,0.07483765372546877,0,0,0,0
0.0590527693373409,0.006368864068290129,0.07483765372546877,0,0,0,0
-0.0602529346626591,0.05063809176829013,0.014349816725468773,0,0,0,0
-0.0602529346626591,0.05063809176829013,0.014349816725468773,0,0,0,0
-0.0004514533626591051,0.03486997576829013,-0.010876865774531225,0,0,0,0
-0.0004514533626591051,0.03486997576829013,-0.010876865774531225,0,0,0,0
-0.0455241996626591,0.04758434976829013,0.019946203725468774,0,0,0,0
-0.0455241996626591,0.04758434976829013,0.019946203725468774,0,0,0,0
-0.051605780662659105,0.05791673576829012,0.03521496472546878,0,0,0,0
-0.04024103466265911,0.033965045768290125,-0.04476675527453122,0,0,0,0
-0.022959216662659106,-0.007066812631709871,-0.04854269727453122,0,0,0,0
0.025793473337340896,-0.036741906231709864,0.031978235725468776,0,0,0,0
-0.013896830662659104,-0.009706428231709871,0.004503892325468775,0,0,0,0
-0.013896830662659104,-0.009706428231709871,0.004503892325468775,0,0,0,0
0.04561769233734089,0.04211103376829013,0.04999529572546878,0,0,0,0
0.051213471337340895,0.04957672076829013,0.05776593972546878,0,0,0,0
0.0338309453373409,0.04154959976829013,-0.04374868427453122,0,0,0,0
0.0338309453373409,0.04154959976829013,-0.04374868427453122,0,0,0,0
-0.07149742466265911,-0.0017389829317098716,0.03400056772546878,0,0,0,0
-0.07149742466265911,-0.0017389829317098716,0.03400056772546878,0,0,0,0
0.012063328337340896,0.02189887776829013,-0.021019430274531223,0,0,0,0
0.012063328337340896,0.02189887776829013,-0.021019430274531223,0,0,0,0
-0.018301470662659105,0.008562688768290128,-0.12315405027453122,0,0,0,0
-0.020021804662659105,-0.046059480231709866,0.07776529672546877,0,0,0,0
-0.008188136262659105,-0.02564230423170987,-0.019682641274531225,0,0,0,0
-0.008188136262659105,-0.02564230423170987,-0.019682641274531225,0,0,0,0
0.03626462533734089,0.017061490768290128,-0.03877937327453122,0,0,0,0
-0.047783454662659104,0.04472478076829013,-0.04772133427453122,0,0,0,0
-0.03715866466265911,0.05169175276829013,0.03726049972546878,0,0,0,0
-0.032748969662659104,0.01629287376829013,0.01839662672546877,0,0,0,0
-0.045614894662659104,-0.033169954231709875,0.019133829725468773,0,0,0,0
-0.045614894662659104,-0.033169954231709875,0.019133829725468773,0,0,0,0
0.09083444533734089,0.019755345768290127,0.06892532972546878,0,0,0,0
-0.10279157966265912,-0.046741616231709866,0.07420923972546876,0,0,0,0
-0.1370775046626591,-0.019793960231709873,0.06256205272546878,0,0,0,0
0.06482249933734088,0.007085191168290129,-0.032170243274531225,0,0,0,0
0.06482249933734088,0.007085191168290129,-0.006335075274531225,0,0,0,0
0.04580136933734089,0.01063835676829013,-0.006335075274531225,0,0,0,0
-0.0019000846626591058,-0.03471420423170987,0.04494860572546878,0,0,0,0
-0.0019000846626591058,-0.03471420423170987,0.04494860572546878,0,0,0,0
0.033301751337340896,-0.021444710231709872,-0.027037783274531227,0,0,0,0
0.0454365893373409,0.013973489768290128,-0.06822793027453124,0,0,0,0
-0.014479525662659105,-0.023944794231709872,-0.007070751524531225,0,0,0,0
-0.0575180846626591,-0.035442018231709865,0.04913394972546878,0,0,0,0
-0.07086151466265911,-0.02435638423170987,0.07793246372546878,0,0,0,0
-0.037575896662659106,-0.01139858923170987,0.025009856725468776,0,0,0,0
0.0556245953373409,0.01431704376829013,-0.021502430274531224,0,0,0,0
0.0556245953373409,0.01431704376829013,-0.021502430274531224,0,0,0,0
-0.0455682596626591,-0.029886400231709867,-0.032146556274531224,0,0,0,0
-0.0455682596626591,-0.029886400231709867,-0.032146556274531224,0,0,0,0
-0.049907191662659105,-0.08924348923170987,0.05923630472546878,0,0,0,0
-0.028265936662659103,-0.08659931923170987,0.09012027972546877,0,0,0,0
0.02877227533734089,0.0031488452682901288,-0.12622051027453124,0,0,0,0
0.054787365337340896,-0.0020930882317098717,0.03881240972546878,0,0,0,0
0.054787365337340896,-0.0020930882317098717,0.03881240972546878,0,0,0,0
0.009431950337340896,-0.02568368823170987,0.03819485772546878,0,0,0,0
-0.0011054831626591058,-0.04627502423170987,-0.022288377274531226,0,0,0,0
-0.03821275966265911,0.008031502768290129,-0.005651004674531225,0,0,0,0
-0.06741255066265911,0.05420788576829013,0.03451476572546878,0,0,0,0
0.024855629337340895,-0.06423024423170987,-0.022081513274531228,0,0,0,0
0.041176715337340894,-0.07648322423170988,0.04398465972546877,0,0,0,0
0.0370026753373409,-0.018891575231709874,-0.018156786274531225,0,0,0,0
0.0370026753373409,-0.018891575231709874,-0.018156786274531225,0,0,0,0
-0.0041797477126591055,0.07371554976829013,0.005695901725468776,0,0,0,0
-0.0041797477126591055,0.07371554976829013,0.005695901725468776,0,0,0,0
-0.061576254662659105,-0.01756193023170987,0.021519617725468773,0,0,0,0
-0.061576254662659105,-0.01756193023170987,0.021519617725468773,0,0,0,0
0.009710137337340895,-0.03870303923170987,-0.002422697874531225,0,0,0,0
0.06505214533734088,-0.004438423631709872,0.03145572972546878,0,0,0,0
0.041072289337340896,-0.007302814231709871,0.06356567972546877,0,0,0,0
-0.018727381662659106,-0.02669193123170987,0.01981293372546877,0,0,0,0
-0.018727381662659106,-0.02669193123170987,0.01981293372546877,0,0,0,0
0.012526051337340895,-0.10277126423170987,0.021014062725468772,0,0,0,0
0.012526051337340895,-0.10277126423170987,0.021014062725468772,0,0,0,0
-0.0035564261826591054,-0.001710485931709871,0.05254492972546878,0,0,0,0
0.0537407053373409,0.05141273176829013,-0.06902078027453123,0,0,0,0
0.06383029533734089,0.04736386876829013,-0.027235062274531225,0,0,0,0
0.06753989833734089,-0.0013328577317098713,0.023021129725468773,0,0,0,0
0.0485825703373409,-0.03911942223170987,0.039483019725468776,0,0,0,0
0.011207787337340895,-0.01677308923170987,0.0018548947254687738,0,0,0,0
-0.023651679662659103,-0.0007144327317098716,-0.005805726374531225,0,0,0,0
-0.023651679662659103,-0.0007144327317098716,-0.005805726374531225,0,0,0,0
0.0583295053373409,0.013663721768290128,-0.012412233674531224,0,0,0,0
0.0583295053373409,0.013663721768290128,-0.012412233674531224,0,0,0,0
0.0583295053373409,0.013663721768290128,-0.012412233674531224,0,0,0,0
0.08359910533734088,-0.0025326752317098716,-0.08212026027453123,0,0,0,0
-0.0678582986626591,-0.0001736636317098716,0.024361394725468773,0,0,0,0
-0.0552254516626591,0.02333519376829013,0.020965604725468778,0,0,0,0
-0.03198068966265911,0.02979033076829013,0.0008176667254687743,0,0,0,0
-0.013484271162659104,0.020389643768290132,-0.035273643274531225,0,0,0,0
0.0375569503373409,-0.01180418423170987,-0.003059823874531226,0,0,0,0
0.042111222337340895,-0.027746116231709868,-0.030107923274531226,0,0,0,0
-0.03466556866265911,0.0024569188182901286,-0.04545676227453122,0,0,0,0
-0.03466556866265911,0.0024569188182901286,-0.04545676227453122,0,0,0,0
-0.06876371466265911,-0.010253128231709872,0.055791419725468784,0,0,0,0
0.04593011533734089,0.01914989976829013,-0.07357730427453123,0,0,0,0
0.04593011533734089,0.01914989976829013,-0.07357730427453123,0,0,0,0
0.04593011533734089,0.01914989976829013,-0.07357730427453123,0,0,0,0
-0.06635702466265911,-0.01169128623170987,-0.005111666074531226,0,0,0,0
-0.11314867466265913,0.028100973768290127,0.07829276972546877,0,0,0,0
-0.11314867466265913,0.028100973768290127,0.07829276972546877,0,0,0,0
-0.11314867466265913,0.028100973768290127,0.07829276972546877,0,0,0,0
-0.12849472466265913,0.003972146368290129,0.07004381972546878,0,0,0,0
0.1182192053373409,0.00012035116829012867,0.07004381972546878,0,0,0,0
0.09554101533734088,-0.006050064731709872,-0.048147160274531225,0,0,0,0
0.09554101533734088,-0.006050064731709872,-0.048147160274531225,0,0,0,0
-0.018085177662659106,-0.03347779423170987,0.10220871972546877,0,0,0,0
-0.1437602846626591,0.057229015768290134,0.10913629972546877,0,0,0,0
-0.030240996662659107,0.013809708168290129,0.08465739372546877,0,0,0,0
0.033648697337340897,-0.03971116423170987,-0.14680248027453124,0,0,0,0
0.11876317533734089,-0.012644347231709872,-0.10744339427453123,0,0,0,0
0.16953107533734088,0.01630570376829013,0.047990803725468774,0,0,0,0
-0.025405199662659105,-0.029982965231709874,-0.028296609274531224,0,0,0,0
-0.046165831662659106,-0.03071461023170987,0.007112674725468776,0,0,0,0
-0.048355181662659105,0.05762085576829013,0.025096074725468775,0,0,0,0
0.0306655093373409,-0.04193962423170987,-0.17929855027453123,0,0,0,0
-0.07574919066265912,0.01936690576829013,0.05516755972546878,0,0,0,0
0.07802955533734088,0.05267126576829013,0.03340265572546878,0,0,0,0
0.1325447253373409,-0.04072057223170987,-0.011816133574531224,0,0,0,0
0.1325447253373409,-0.04072057223170987,-0.011816133574531224,0,0,0,0
-0.11784971466265912,0.04451250776829013,0.07458023972546876,0,0,0,0
-0.10927561466265912,0.03638122576829013,0.03072730172546877,0,0,0,0
0.033838575337340894,-0.008570903231709871,-0.05400704327453122,0,0,0,0
0.033838575337340894,-0.008570903231709871,-0.05400704327453122,0,0,0,0
0.036376015337340896,0.0017201606982901285,0.03184887572546878,0,0,0,0
0.0010408563373408945,0.009863862768290127,-0.021291114274531227,0,0,0,0
0.015772645337340893,0.04580436076829013,0.0036483867254687745,0,0,0,0
-0.015710337662659106,0.02851519976829013,-0.023830975274531225,0,0,0,0
-0.03414095266265911,-0.029270784231709868,0.012521485725468774,0,0,0,0
-0.03414095266265911,-0.029270784231709868,0.012521485725468774,0,0,0,0
-0.03413408466265911,-0.02940919923170987,0.012643299725468776,0,0,0,0
-0.044443304662659104,0.01925295076829013,0.017841104725468775,0,0,0,0
0.05424024533734089,0.015199411768290129,-0.003437478874531225,0,0,0,0
0.05424024533734089,0.015199411768290129,-0.003437478874531225,0,0,0,0
0.0432683153373409,-0.012730657231709871,-0.012040878874531225,0,0,0,0
-0.03921984066265911,0.04243754576829013,0.09065476472546877,0,0,0,0
-0.03921984066265911,0.04243754576829013,0.09065476472546877,0,0,0,0
-0.08784540466265911,0.04437777776829013,-0.016121317274531227,0,0,0,0
-0.028287584662659106,0.014033669768290128,-0.09560980327453122,0,0,0,0
0.06514913533734089,-0.021716275231709874,0.0010790571254687747,0,0,0,0
0.06514913533734089,-0.021716275231709874,0.0010790571254687747,0,0,0,0
0.023930089337340893,-0.02722682623170987,0.03671046372546878,0,0,0,0
0.023930089337340893,-0.02722682623170987,0.03671046372546878,0,0,0,0
0.021156995337340896,0.028391685768290126,0.011824385725468772,0,0,0,0
-0.008149798662659104,0.020655775768290127,-0.030210574274531225,0,0,0,0
0.0227701353373409,-0.024961954231709868,-0.0036901667745312255,0,0,0,0
0.037640969337340895,-0.03623348723170987,0.021269736725468773,0,0,0,0
0.016549126337340896,-0.03496297223170987,0.03669730972546877,0,0,0,0
-0.021651537662659107,-0.017048224231709867,-0.0022035552745312253,0,0,0,0
0.011998669337340895,0.0037908856682901284,-0.006880314674531225,0,0,0,0
0.011998669337340895,0.0037908856682901284,-0.006880314674531225,0,0,0,0
-0.013798029662659105,0.048979541768290134,-0.06271116027453123,0,0,0,0
-0.03389137466265911,0.0021539335082901285,-0.08515229427453122,0,0,0,0
-0.03389137466265911,0.0021539335082901285,-0.08515229427453122,0,0,0,0
-0.015562518262659104,-0.03923547823170987,0.05299039372546877,0,0,0,0
0.020640770337340894,-0.003238632831709871,0.04103960972546878,0,0,0,0
0.08152772533734089,0.010692334768290129,-0.09258560027453124,0,0,0,0
0.08152772533734089,0.010692334768290129,-0.09258560027453124,0,0,0,0
0.015870682337340895,-0.00977297383170987,-0.037243075274531225,0,0,0,0
-0.11762941466265911,0.008448619068290128,0.06931772972546876,0,0,0,0
-0.11294525466265912,0.029352875768290126,-0.0036561502745312254,0,0,0,0
-0.0313193146626591,0.026798019768290125,-0.030450983274531225,0,0,0,0
-0.0313193146626591,0.026798019768290125,-0.030450983274531225,0,0,0,0
0.13271457533734088,0.0008073691682901284,-0.018955131274531224,0,0,0,0
-0.022893507662659105,0.047070055768290125,-0.046476348274531225,0,0,0,0
-0.08521965466265911,-0.002636923931709872,-0.0035017207745312254,0,0,0,0
-0.040861590662659104,-0.0032216812317098715,0.04198565972546878,0,0,0,0
-0.040861590662659104,-0.0032216812317098715,0.04198565972546878,0,0,0,0
0.1288355053373409,-0.015637337231709868,-0.11364808027453123,0,0,0,0
0.1288355053373409,-0.015637337231709868,-0.11364808027453123,0,0,0,0
-0.023675520662659103,-0.043844198231709874,0.08216318372546877,0,0,0,0
-0.09165981466265911,-0.007949325231709872,0.10402493972546877,0,0,0,0
-0.1014159996626591,0.06350002976829013,0.08737015572546877,0,0,0,0
-0.052657206662659106,0.08383925576829013,-0.023195775274531226,0,0,0,0
0.0676443253373409,0.03812932376829013,-0.11748502027453124,0,0,0,0
0.1602279853373409,0.013171321768290127,0.019105367725468773,0,0,0,0
-0.018814261662659107,-0.06925922023170987,-0.09100804027453123,0,0,0,0
-0.018814261662659107,-0.06925922023170987,-0.09100804027453123,0,0,0,0
-0.12637565466265913,0.005690288968290129,0.09960256972546878,0,0,0,0
-0.1798180446626591,0.09146323576829013,0.09580556972546878,0,0,0,0
-0.08113916466265911,0.07939978876829014,0.001871906225468776,0,0,0,0
0.1604702153373409,-0.04088897023170987,-0.03946379027453122,0,0,0,0
0.09069835533734089,-0.06371355423170987,0.0035143597254687743,0,0,0,0
0.09069835533734089,-0.06371355423170987,0.0035143597254687743,0,0,0,0
-0.007898123862659106,-0.00863809523170987,0.04054329272546878,0,0,0,0
-0.08343914466265911,0.10963961576829014,0.04509489972546878,0,0,0,0
-0.03932607966265911,0.020810672768290128,-0.08413255027453123,0,0,0,0
-0.03932607966265911,0.020810672768290128,-0.08413255027453123,0,0,0,0
-0.03932607966265911,0.020810672768290128,-0.08413255027453123,0,0,0,0
0.00015689533734089458,-0.07351406723170988,0.028503249725468773,0,0,0,0
-0.023006709662659105,-0.03794155423170987,0.006956021725468774,0,0,0,0
-0.023006709662659105,-0.03794155423170987,0.006956021725468774,0,0,0,0
-0.07744453466265912,0.08768395276829012,0.058853034725468774,0,0,0,0
-0.007986338662659105,0.06301987576829013,0.03643556672546878,0,0,0,0
-0.007986338662659105,0.06301987576829013,0.03643556672546878,0,0,0,0
0.12327481533734089,-0.00894964623170987,-0.012576718674531225,0,0,0,0
0.04099961933734089,0.03601817876829013,-0.023366232274531225,0,0,0,0
0.04099961933734089,0.03601817876829013,-0.023366232274531225,0,0,0,0
-0.1697008946626591,0.06714069876829012,0.007114021725468774,0,0,0,0
-0.17307031466265912,0.04046238576829013,0.018720511725468774,0,0,0,0
0.06032125133734089,-0.01970394223170987,0.02757870972546877,0,0,0,0
-0.16204565466265913,0.04670400076829013,0.09979598972546878,0,0,0,0
-0.16204565466265913,0.04670400076829013,0.09979598972546878,0,0,0,0
-0.11034220466265912,0.0076175457682901284,-0.034067590274531226,0,0,0,0
-0.11034220466265912,0.0076175457682901284,-0.034067590274531226,0,0,0,0
0.1378128253373409,-0.04782748723170987,-0.04091679627453122,0,0,0,0
-0.020005209662659104,0.01618006076829013,0.08052400972546878,0,0,0,0
-0.020005209662659104,0.01618006076829013,0.08052400972546878,0,0,0,0
-0.037540991662659104,0.04845613276829013,-0.034339686274531225,0,0,0,0
0.00046922383734089405,0.016635665768290127,-0.07118474027453123,0,0,0,0
0.057955375337340895,-0.05097787923170987,-0.010436721274531225,0,0,0,0
0.057955375337340895,-0.05097787923170987,-0.010436721274531225,0,0,0,0
-0.0637968846626591,0.030101412768290127,-0.013372130774531225,0,0,0,0
-0.03660820266265911,0.025540420768290127,-0.08679423027453123,0,0,0,0
-0.03660820266265911,0.025540420768290127,-0.08679423027453123,0,0,0,0
-0.022109206662659104,-0.02001146023170987,0.05940445972546878,0,0,0,0
-0.0005960303626591059,-0.03619193423170987,0.07427949972546877,0,0,0,0
-0.0005960303626591059,-0.03619193423170987,0.07427949972546877,0,0,0,0
0.024102227337340895,-0.00845934723170987,0.08476757972546876,0,0,0,0
-0.008551390662659105,-0.01970619223170987,-0.17827850027453124,0,0,0,0
-0.008551390662659105,-0.01970619223170987,-0.17827850027453124,0,0,0,0
0.015957085337340894,0.008812018168290128,0.05490083972546878,0,0,0,0
-0.12367580466265911,-0.005915888731709873,-0.021333141274531228,0,0,0,0
0.0036352318373408946,-0.06936728923170987,0.08668088972546877,0,0,0,0
0.0036352318373408946,-0.06936728923170987,0.08668088972546877,0,0,0,0
0.050505749337340894,0.07486608576829014,0.021351502725468773,0,0,0,0
0.050505749337340894,0.07486608576829014,0.021351502725468773,0,0,0,0
0.1173254153373409,-0.003732290231709872,-0.028438128274531228,0,0,0,0
-0.016460116662659105,-0.015474781231709872,0.07976178972546877,0,0,0,0
-0.0760324346626591,-0.018836774231709867,0.08892808972546877,0,0,0,0
-0.0014193373626591056,-0.021458324231709867,0.09484887972546877,0,0,0,0
-0.058048324662659107,-0.03767658723170987,-0.18264920027453124,0,0,0,0
-0.058048324662659107,-0.03767658723170987,-0.18264920027453124,0,0,0,0
0.1203343553373409,-0.01637167023170987,0.05976885972546878,0,0,0,0
-0.0528611976626591,0.08708546176829013,-0.014482368274531225,0,0,0,0
-0.0528611976626591,0.08708546176829013,-0.014482368274531225,0,0,0,0
-0.025936873662659107,0.07697554276829012,-0.08154971027453123,0,0,0,0
0.038536088337340894,0.1273696257682901,0.05812676372546877,0,0,0,0
0.0569420023373409,0.07513096976829013,-0.03923998027453122,0,0,0,0
0.09983283533734089,-0.014855684231709873,-0.13550640027453123,0,0,0,0
-0.015851195662659107,-0.0037340726317098717,0.059310476725468776,0,0,0,0
0.0403846903373409,0.007036181268290129,-0.011216409574531225,0,0,0,0
-0.021870692662659105,0.006219515768290129,0.05807432972546877,0,0,0,0
0.0403846903373409,0.007036181268290129,-0.011216409574531225,0,0,0,0
0.03535930333734089,-0.012172026231709872,-0.009875692474531225,0,0,0,0
0.028782670337340895,-0.053734894231709865,0.028629277725468773,0,0,0,0
0.011180512337340895,-0.04735895923170987,0.02376453172546877,0,0,0,0
-0.040106566662659104,0.03495470076829013,0.014093558725468774,0,0,0,0
-0.026883967662659103,0.03542512376829013,-0.009445776074531224,0,0,0,0
0.10165092533734088,-0.047681438231709866,-0.03166731127453122,0,0,0,0
-0.062031538662659105,0.07737664576829013,-0.07790037027453123,0,0,0,0
-0.062031538662659105,0.07737664576829013,-0.07790037027453123,0,0,0,0
-0.062031538662659105,0.07737664576829013,-0.07790037027453123,0,0,0,0
-0.1785973346626591,0.028984481768290125,0.016452686725468773,0,0,0,0
0.11333076533734088,0.030664891768290126,0.03529060372546878,0,0,0,0
0.11333076533734088,0.030664891768290126,0.03529060372546878,0,0,0,0
0.1621343753373409,0.0003958661682901287,-0.10090311027453122,0,0,0,0
-0.0039013701826591056,-0.014865182231709873,0.03534274572546878,0,0,0,0
-0.1756309346626591,-0.00903182873170987,0.11700185972546875,0,0,0,0
-0.1756309346626591,-0.00903182873170987,0.11700185972546875,0,0,0,0
-0.2577655146626591,-0.003997108231709872,0.15205271972546877,0,0,0,0
0.007205311337340895,-0.07800059423170987,0.08767352572546877,0,0,0,0
0.15554429533734088,-0.04245394423170987,-0.05389604027453122,0,0,0,0
0.15554429533734088,-0.04245394423170987,-0.05389604027453122,0,0,0,0
0.1617331653373409,0.04741746876829013,-0.13877908027453123,0,0,0,0
-0.06938713466265911,0.03559723576829013,-0.024061687274531226,0,0,0,0
-0.06938713466265911,0.03559723576829013,-0.024061687274531226,0,0,0,0
-0.16130827466265912,0.03157698276829013,0.15001493972546875,0,0,0,0
-0.016084845662659105,0.09200356576829012,0.09813692972546878,0,0,0,0
-0.016084845662659105,0.09200356576829012,0.09813692972546878,0,0,0,0
0.13466626533734088,0.055310851768290134,-0.021972842274531224,0,0,0,0
0.2230296253373409,-0.016259705231709873,-0.24902414027453124,0,0,0,0
-0.035441096662659106,0.006648642268290129,0.027628455725468775,0,0,0,0
-0.2609460146626591,-0.001609512731709871,0.046401549725468776,0,0,0,0
-0.2715997546626591,-0.027080696231709868,0.07534198572546877,0,0,0,0
-0.15185793466265912,-0.010034343231709871,0.11235483972546877,0,0,0,0
0.05422918033734089,-0.04990817823170987,-0.13238528027453123,0,0,0,0
0.05422918033734089,-0.04990817823170987,-0.13238528027453123,0,0,0,0
0.2031163353373409,-0.047588297231709875,0.03510729972546878,0,0,0,0
-0.056071551662659105,0.030182808768290124,-0.026243074274531226,0,0,0,0
-0.1478346646626591,0.08911661576829012,0.14239956972546877,0,0,0,0
-0.1478346646626591,0.08911661576829012,0.14239956972546877,0,0,0,0
-0.029061491662659103,0.056957505768290125,-0.042456950274531224,0,0,0,0
0.1348557653373409,-0.032617726231709866,-0.17593194027453124,0,0,0,0
0.1798958953373409,-0.08189607823170987,-0.11704221027453122,0,0,0,0
-0.15588816466265912,0.05427750576829013,0.11456538972546879,0,0,0,0
-0.041602309662659105,-0.058411244231709875,0.05514645972546877,0,0,0,0
0.13424235533734089,-0.08515990423170987,-0.014606119774531225,0,0,0,0
0.04397250833734089,0.08335554076829013,0.06962728972546876,0,0,0,0
-0.0475776506626591,0.09907397576829013,-0.004243417274531225,0,0,0,0
0.007735363837340896,0.01466714336829013,-0.002013881574531225,0,0,0,0
0.007735363837340896,0.01466714336829013,-0.002013881574531225,0,0,0,0
0.0376298113373409,-0.023960810231709873,-0.015469809274531225,0,0,0,0
0.10473329533734088,-0.02016834723170987,0.07527283972546876,0,0,0,0
0.05192786833734089,0.02559720576829013,-0.016291357274531224,0,0,0,0
0.1012087053373409,-0.08230875123170987,-0.05174068327453122,0,0,0,0
0.1012087053373409,-0.08230875123170987,-0.05174068327453122,0,0,0,0
0.1012087053373409,-0.08230875123170987,-0.05174068327453122,0,0,0,0
-0.0797989686626591,0.08525824576829012,-0.10079217027453123,0,0,0,0
0.023879830337340896,0.031865853768290126,-0.12606591027453123,0,0,0,0
0.16974088533734089,-0.07640648423170987,0.04654019272546877,0,0,0,0
0.16974088533734089,-0.07640648423170987,0.04654019272546877,0,0,0,0
0.036130539337340895,0.060452035768290134,0.07875144372546877,0,0,0,0
0.036130539337340895,0.060452035768290134,0.07875144372546877,0,0,0,0
0.036130539337340895,0.060452035768290134,0.07875144372546877,0,0,0,0
-0.026350195662659105,0.06268339576829013,-0.17738665027453124,0,0,0,0
0.031387822337340894,0.004354160768290129,0.014677612725468771,0,0,0,0
0.07431003533734089,-0.10300062423170987,0.09332134972546877,0,0,0,0
0.07431003533734089,-0.10300062423170987,0.09332134972546877,0,0,0,0
0.0419074223373409,-0.02262363123170987,0.05404281972546878,0,0,0,0
-0.08375986466265911,0.013807954368290128,-0.24464355027453122,0,0,0,0
-0.07651480066265912,-0.0031148302317098716,0.09329276972546877,0,0,0,0
-0.07651480066265912,-0.0031148302317098716,0.09329276972546877,0,0,0,0
-0.07651480066265912,-0.0031148302317098716,0.09329276972546877,0,0,0,0
0.037462535337340896,-0.06695944023170987,0.10084285972546878,0,0,0,0
0.0977712753373409,0.011584695768290128,-0.16404165027453121,0,0,0,0
0.04947063133734089,0.04484068776829013,-0.20029733027453123,0,0,0,0
-0.012359507662659103,0.06254448576829014,0.040280256725468776,0,0,0,0
-0.2390213346626591,0.0014900323682901285,0.05850190972546878,0,0,0,0
-0.1221671946626591,-0.018301296231709875,0.08879972572546876,0,0,0,0
0.025815312337340898,0.0012165059682901287,0.0036040231254687747,0,0,0,0
0.1392213053373409,0.016079727768290128,-0.06846870027453122,0,0,0,0
0.1392213053373409,0.016079727768290128,-0.06846870027453122,0,0,0,0
0.1392213053373409,0.016079727768290128,-0.06846870027453122,0,0,0,0
-0.0447316966626591,-0.033339172231709874,-0.020763816274531225,0,0,0,0
-0.0447316966626591,-0.033339172231709874,-0.020763816274531225,0,0,0,0
-0.2038532546626591,-0.02212003423170987,0.14815721972546878,0,0,0,0
-0.1234565546626591,0.00870960876829013,0.13955042972546877,0,0,0,0
0.08545438533734089,0.0027390097182901285,-0.07407584327453123,0,0,0,0
0.10178167533734088,-0.06585761823170987,-0.24386471027453124,0,0,0,0
0.11212207533734089,-0.0019662748317098716,0.09979931972546877,0,0,0,0
-0.04916427866265911,0.07555273176829014,0.13309437972546878,0,0,0,0
-0.020035822662659103,0.04650578876829013,0.12727172972546877,0,0,0,0
-0.020939143662659105,-0.037468704231709865,-0.21820269027453124,0,0,0,0
0.07019464233734088,0.02805976876829013,-0.011205543574531225,0,0,0,0
0.0530356553373409,0.013627659268290128,0.05396449972546878,0,0,0,0
-0.054060728662659104,-0.018205550231709867,0.06321507972546878,0,0,0,0
-0.018683035662659105,0.020370614768290128,0.03428826772546877,0,0,0,0
-0.018683035662659105,0.020370614768290128,0.03428826772546877,0,0,0,0
0.03795673033734089,0.06546019976829012,0.018454555725468773,0,0,0,0
0.0368043103373409,0.02457888176829013,-0.07786933327453123,0,0,0,0
0.045480362337340895,-0.05487754923170987,0.054991269725468785,0,0,0,0
-0.0718948206626591,-0.03788137723170987,0.023941639725468773,0,0,0,0
-0.017110236662659106,-0.0026581446317098713,0.039660899725468775,0,0,0,0
-0.017110236662659106,-0.0026581446317098713,0.039660899725468775,0,0,0,0
-0.017110236662659106,-0.0026581446317098713,0.039660899725468775,0,0,0,0
0.06522628533734089,-0.016146251231709867,0.010333154725468776,0,0,0,0
0.06522628533734089,-0.016146251231709867,0.010333154725468776,0,0,0,0
0.08015233533734088,-0.03574292923170987,0.030929834725468775,0,0,0,0
0.003985039337340895,0.03842556176829013,0.06554235672546878,0,0,0,0
0.0037128609373408943,-0.05270353423170987,-0.08559010027453123,0,0,0,0
0.0523101953373409,-0.024534344231709866,0.013445560725468774,0,0,0,0
0.0523101953373409,-0.024534344231709866,0.013445560725468774,0,0,0,0
0.04854213533734089,0.003966622468290128,0.051663879725468785,0,0,0,0
-0.011166556662659106,0.02728887276829013,0.06458614272546878,0,0,0,0
-0.011166556662659106,0.02728887276829013,0.06458614272546878,0,0,0,0
-0.011166556662659106,0.02728887276829013,0.06458614272546878,0,0,0,0
0.031067292337340895,0.03502990076829013,0.05640586972546877,0,0,0,0
0.0557548683373409,0.007323063968290129,-0.05673536227453122,0,0,0,0
0.08541509533734089,-0.008098669231709871,0.056296559725468785,0,0,0,0
0.08541509533734089,-0.008098669231709871,0.056296559725468785,0,0,0,0
-0.059112914662659104,-0.020185705231709872,0.012657384725468773,0,0,0,0
-0.055914384662659106,-0.03193094423170987,-0.017197479274531226,0,0,0,0
-0.0014507132626591056,0.0075515244682901285,0.05480597472546878,0,0,0,0
0.022719685337340895,0.029769230768290127,0.056841279725468784,0,0,0,0
0.08116809533734089,-0.05150485423170986,-0.09116708027453123,0,0,0,0
0.08116809533734089,-0.05150485423170986,-0.09116708027453123,0,0,0,0
-0.0620561446626591,0.01529003976829013,0.08431819572546877,0,0,0,0
-0.1300575046626591,0.06161547576829013,0.08525512672546877,0,0,0,0
-0.06669100066265912,0.04896107376829013,0.08797279972546877,0,0,0,0
0.016862313337340895,0.01084927976829013,0.0010005041254687744,0,0,0,0
0.12195741533734089,-0.036692952231709874,-0.026980443274531227,0,0,0,0
-0.006116469562659106,-0.05014856423170987,-0.018471206774531224,0,0,0,0
-0.006116469562659106,-0.05014856423170987,-0.018471206774531224,0,0,0,0
0.04166518833734089,-0.03012611223170987,-0.14075466027453123,0,0,0,0
0.04166518833734089,-0.03012611223170987,-0.14075466027453123,0,0,0,0
0.09773608533734088,-0.04129153723170987,-0.07605491427453123,0,0,0,0
-0.06804359466265911,-0.01176604923170987,0.04482362972546878,0,0,0,0
-0.006383402962659105,-0.0025385509317098712,0.017506174725468775,0,0,0,0
-0.006383402962659105,-0.0025385509317098712,0.017506174725468775,0,0,0,0
0.0981869853373409,-0.01710463123170987,-0.09483256027453123,0,0,0,0
0.0961783553373409,-0.007726242231709871,-0.009535451274531224,0,0,0,0
-0.1268384746626591,-0.018791534231709872,0.01748600472546877,0,0,0,0
-0.1268384746626591,-0.018791534231709872,0.01748600472546877,0,0,0,0
-0.1268384746626591,-0.018791534231709872,0.01748600472546877,0,0,0,0
0.1306482453373409,-0.0033841502317098716,-0.09784806027453123,0,0,0,0
0.0430672803373409,-0.02849275423170987,0.04789949972546878,0,0,0,0
0.0430672803373409,-0.02849275423170987,0.04789949972546878,0,0,0,0
0.0430672803373409,-0.02849275423170987,0.04789949972546878,0,0,0,0
-0.020790179662659104,0.00045048936829012874,-0.05080309627453122,0,0,0,0
-0.059996204662659106,0.04475043776829013,0.039403239725468775,0,0,0,0
-0.1021495646626591,-0.05610957423170987,0.012636343725468773,0,0,0,0
0.1377906953373409,0.05766629576829013,-0.10725091027453124,0,0,0,0
-0.21970617466265913,0.05482642576829013,0.15192517972546876,0,0,0,0
-0.21970617466265913,0.05482642576829013,0.15192517972546876,0,0,0,0
0.11705934533734089,-0.020733518231709873,0.029835961725468773,0,0,0,0
0.11995202533734088,0.011686373768290128,0.07607491472546876,0,0,0,0
0.0959354553373409,-0.012185939231709872,-0.15935362027453123,0,0,0,0
0.0959354553373409,-0.012185939231709872,-0.15935362027453123,0,0,0,0
0.1830821253373409,0.005284164168290128,0.049108759725468784,0,0,0,0
-0.1330742646626591,0.01943052876829013,0.03224185272546878,0,0,0,0
0.07695333133734089,-0.01697875523170987,0.055662769725468776,0,0,0,0
0.1756079853373409,-0.03395721823170987,-0.2623854202745312,0,0,0,0
-0.1892749646626591,0.009343843768290129,0.08552727572546877,0,0,0,0
-0.1892749646626591,0.009343843768290129,0.08552727572546877,0,0,0,0
0.1241372253373409,0.029847380768290126,-0.017616875274531225,0,0,0,0
-0.12124851466265911,0.008227961968290128,0.07742527572546877,0,0,0,0
-0.0389054146626591,0.008125057568290128,0.07011875372546877,0,0,0,0
0.0934981503373409,-0.05887991723170987,-0.18205458027453122,0,0,0,0
-0.1821922146626591,0.07958525576829013,0.09351149972546877,0,0,0,0
-0.1552779946626591,0.05132455876829013,0.09896168972546876,0,0,0,0
0.06835090533734088,-0.04420844223170987,-0.09567182027453122,0,0,0,0
0.1518350753373409,0.020499970768290125,0.014445380725468773,0,0,0,0
-0.13090504466265912,-0.03347568723170987,0.08015277972546878,0,0,0,0
0.08642274533734089,-0.036643296231709865,-0.041476877274531226,0,0,0,0
0.08642274533734089,-0.036643296231709865,-0.041476877274531226,0,0,0,0
0.1312564053373409,0.017942686768290132,-0.011833728874531225,0,0,0,0
0.09653169533734089,-0.04982505423170987,0.007257459725468775,0,0,0,0
0.07878228833734088,-0.05114300823170986,-0.08975494027453122,0,0,0,0
0.07878228833734088,-0.05114300823170986,-0.08975494027453122,0,0,0,0
-0.0349143816626591,0.006112139368290128,-0.09537716027453122,0,0,0,0
0.12396165533734088,0.02710331376829013,-0.009398318874531224,0,0,0,0
-0.0386911226626591,-0.08493390023170987,-0.09558952627453124,0,0,0,0
-0.1009692046626591,-0.05696905423170987,0.10687465972546878,0,0,0,0
-0.0729585486626591,0.03023754976829013,0.11226026972546878,0,0,0,0
-0.0729585486626591,0.03023754976829013,0.11226026972546878,0,0,0,0
0.0983085753373409,-0.029685562231709872,-0.00041930227453122575,0,0,0,0
0.0983085753373409,-0.029685562231709872,-0.00041930227453122575,0,0,0,0
-0.09976862466265911,-0.0032903607317098715,0.11023910972546877,0,0,0,0
-0.0398538426626591,0.011668926768290129,0.07430924972546878,0,0,0,0
-0.0398538426626591,0.011668926768290129,0.07430924972546878,0,0,0,0
0.018265549337340897,-0.0037551756317098714,-0.06264539527453124,0,0,0,0
-0.052801784662659106,-0.02179054323170987,0.06795415972546877,0,0,0,0
-0.052801784662659106,-0.02179054323170987,0.06795415972546877,0,0,0,0
-0.0600315886626591,0.07271645576829013,0.07725717272546877,0,0,0,0
-0.0600315886626591,0.07271645576829013,0.07725717272546877,0,0,0,0
0.07926189133734088,-0.10206927423170988,0.04864008972546878,0,0,0,0
0.07926189133734088,-0.10206927423170988,0.04864008972546878,0,0,0,0
-0.045144160662659104,0.02792106276829013,0.09128083972546877,0,0,0,0
0.043512551337340895,0.04957233576829013,0.09153014972546877,0,0,0,0
0.06427013133734089,-0.02014473323170987,0.09715224972546878,0,0,0,0
-0.006858904962659106,-0.01567892423170987,0.08855866672546878,0,0,0,0
-0.06341684466265911,-0.015701633231709873,0.06964979572546877,0,0,0,0
-0.07079428066265911,-0.014480566231709872,-0.10967094027453123,0,0,0,0
-0.0670363246626591,0.036655920768290134,-0.10810624027453122,0,0,0,0
0.09583217533734088,-0.03031827723170987,0.06192463472546878,0,0,0,0
-0.037292464662659106,-0.07629352423170986,-0.007297255144531225,0,0,0,0
-0.037292464662659106,-0.07629352423170986,-0.007297255144531225,0,0,0,0
-0.027611430662659104,0.034475362768290135,0.008394764725468774,0,0,0,0
-0.027611430662659104,0.034475362768290135,0.008394764725468774,0,0,0,0
-0.027611430662659104,0.034475362768290135,0.008394764725468774,0,0,0,0
-0.027611430662659104,0.034475362768290135,0.008394764725468774,0,0,0,0
0.05784455933734089,-0.03765154423170987,-0.015326888874531226,0,0,0,0
0.023814122337340895,-0.05690665823170987,0.05229866972546878,0,0,0,0
-0.0373029546626591,-0.02810898723170987,0.06922115972546877,0,0,0,0
-0.11351736466265912,0.02087567176829013,0.07432608472546877,0,0,0,0
-0.009144003962659106,-0.027168696231709873,-0.07634454527453123,0,0,0,0
0.14516755533734088,-0.020150342231709868,0.006847707725468776,0,0,0,0
0.07713309933734089,-0.011419337231709872,-0.001286031274531225,0,0,0,0
0.07713309933734089,-0.011419337231709872,-0.001286031274531225,0,0,0,0
-0.017610819662659104,-0.003968700231709871,-0.07194865027453123,0,0,0,0
-0.17203462466265912,0.036969372768290126,0.07134589972546877,0,0,0,0
0.0969466353373409,-0.09486896423170986,-0.10988405027453121,0,0,0,0
0.0969466353373409,-0.09486896423170986,-0.10988405027453121,0,0,0,0
0.1313532053373409,-0.034645491231709874,0.007753483725468775,0,0,0,0
-0.00010736766265910525,0.07142190976829013,-0.0013674572745312249,0,0,0,0
-0.12128857466265912,-0.002142655231709871,0.020278851725468776,0,0,0,0
-0.030757887662659106,-0.03556585223170987,0.03848974572546878,0,0,0,0
-0.030757887662659106,-0.03556585223170987,0.03848974572546878,0,0,0,0
0.054745405337340895,0.012051934768290128,-0.012130959274531224,0,0,0,0
-0.057178099662659104,0.027138475768290128,0.02199401372546877,0,0,0,0
-0.057178099662659104,0.027138475768290128,0.02199401372546877,0,0,0,0
-0.0976532746626591,0.05257934976829012,0.08672987672546877,0,0,0,0
-0.0976532746626591,0.05257934976829012,0.08672987672546877,0,0,0,0
0.0692978053373409,0.015678863768290127,0.004211453725468775,0,0,0,0
0.0692978053373409,0.015678863768290127,0.004211453725468775,0,0,0,0
0.13757621533734088,-0.018263330231709875,-0.07706064027453123,0,0,0,0
-0.13971699466265913,0.0026700650282901286,0.019161183725468777,0,0,0,0
0.13516618533734087,-0.05025091423170987,-0.18156118027453122,0,0,0,0
0.13516618533734087,-0.05025091423170987,-0.18156118027453122,0,0,0,0
0.10051595533734088,-0.024982642231709873,-0.06394291627453122,0,0,0,0
-0.09315136466265911,0.04935156176829013,0.09355760972546877,0,0,0,0
0.06829301533734089,-0.02203761623170987,-0.05860857527453122,0,0,0,0
0.06829301533734089,-0.02203761623170987,-0.05860857527453122,0,0,0,0
-0.2043782546626591,0.05956707576829013,0.06095765972546877,0,0,0,0
-0.2043782546626591,0.05956707576829013,0.06095765972546877,0,0,0,0
-0.10813740466265911,0.04479725976829013,0.07425441972546877,0,0,0,0
-0.10813740466265911,0.04479725976829013,0.07425441972546877,0,0,0,0
-0.13049105466265912,0.02649514676829013,0.05705708972546878,0,0,0,0
-0.13049105466265912,0.02649514676829013,0.05705708972546878,0,0,0,0
0.07666331933734088,0.006823912768290128,0.025152592725468773,0,0,0,0
0.0548524053373409,-0.014089345231709871,-0.17827435027453123,0,0,0,0
0.057356565337340897,0.03290285176829013,0.07141691972546878,0,0,0,0
-0.060036164662659104,0.05690147876829013,0.08370491972546877,0,0,0,0
-0.10776308466265912,0.061567515768290136,0.08241417972546877,0,0,0,0
-0.10776308466265912,0.061567515768290136,0.08241417972546877,0,0,0,0
0.04236346933734089,-0.03811436423170987,-3.6497274531225796e-05,0,0,0,0
0.08858739533734089,0.005416968768290129,0.05500079972546878,0,0,0,0
0.08783532533734088,0.04998918776829013,0.04925225972546878,0,0,0,0
0.023945920337340894,0.04417871876829013,0.013983259725468773,0,0,0,0
-0.08407524466265912,-0.0020266856317098713,-0.16312423027453124,0,0,0,0
-0.07259558066265911,0.03781201876829013,-0.010195316374531225,0,0,0,0
0.0218418283373409,0.04156441776829013,0.07974296672546877,0,0,0,0
0.0218418283373409,0.04156441776829013,0.07974296672546877,0,0,0,0
0.08046008533734089,0.0036081646682901286,0.047350689725468784,0,0,0,0
-0.0604942146626591,-0.014166007231709873,-0.19107099027453123,0,0,0,0
-0.016439898662659106,0.09378340876829012,0.08111682972546877,0,0,0,0
0.0382716353373409,0.06163982176829014,0.09320801972546876,0,0,0,0
0.09466516233734089,0.01247676376829013,0.061001499725468776,0,0,0,0
0.10482007533734088,0.020943622768290128,0.026987586725468773,0,0,0,0
0.10482007533734088,0.020943622768290128,0.026987586725468773,0,0,0,0
0.028091542337340895,0.045861762768290126,-0.1522736502745312,0,0,0,0
-0.051255495662659106,0.06580489576829013,0.07234584572546877,0,0,0,0
-0.1178723146626591,0.010160625768290127,0.07048652972546877,0,0,0,0
-0.08103102066265912,-0.048518564231709874,0.08220216472546878,0,0,0,0
-0.08103102066265912,-0.048518564231709874,0.08220216472546878,0,0,0,0
-0.08103102066265912,-0.048518564231709874,0.08220216472546878,0,0,0,0
0.0993662953373409,0.08860100576829012,-0.001711566774531226,0,0,0,0
0.0993662953373409,0.08860100576829012,-0.001711566774531226,0,0,0,0
-0.1165859046626591,0.05949935976829013,0.022304983725468772,0,0,0,0
-0.0903578596626591,-0.004067778231709871,-0.027310933274531227,0,0,0,0
-0.013713629662659106,-0.024596041231709866,0.03172484472546878,0,0,0,0
0.008510033337340895,0.015370235768290129,-0.07035389727453123,0,0,0,0
0.06572791533734089,-0.011077714231709872,0.06362441972546877,0,0,0,0
0.06572791533734089,-0.011077714231709872,0.06362441972546877,0,0,0,0
0.012609784337340894,0.018471211768290127,0.05300699272546878,0,0,0,0
0.012609784337340894,0.018471211768290127,0.05300699272546878,0,0,0,0
0.0006337326373408942,0.044554215768290134,-0.06030503027453123,0,0,0,0
0.0006337326373408942,0.044554215768290134,-0.06030503027453123,0,0,0,0
-0.026670344662659107,0.05503706576829012,-0.025724073274531224,0,0,0,0
-0.015178092162659106,-0.030896252231709866,-0.004681344374531226,0,0,0,0
-0.015178092162659106,-0.030896252231709866,-0.004681344374531226,0,0,0,0
0.060306375337340894,-0.007410892231709872,-0.024561454274531228,0,0,0,0
0.0273574033373409,-0.0010461787317098711,0.05239692972546877,0,0,0,0
0.029000393337340898,-0.03852397123170987,-0.020435555274531225,0,0,0,0
0.029000393337340898,-0.03852397123170987,-0.020435555274531225,0,0,0,0
0.029000393337340898,-0.03852397123170987,-0.020435555274531225,0,0,0,0
0.0631261053373409,-0.007855799231709872,-0.027908142274531228,0,0,0,0
0.042749421337340894,0.012778786768290128,-0.046649374274531225,0,0,0,0
-0.1596134046626591,-0.01894219323170987,-0.0019645407745312255,0,0,0,0
-0.0666434146626591,-0.06206389023170987,0.08988769472546877,0,0,0,0
0.05866376533734089,-0.07656287423170986,0.08549734972546877,0,0,0,0
0.09480458933734089,0.010638004768290127,-0.007403869974531225,0,0,0,0
0.056730381337340895,-0.03789043723170987,-0.17691435027453123,0,0,0,0
0.056730381337340895,-0.03789043723170987,-0.17691435027453123,0,0,0,0
-0.009135802362659106,-0.019835285231709875,-0.05876248627453123,0,0,0,0
-0.08002517966265911,-0.09045777423170986,0.05829977972546877,0,0,0,0
-0.004279120582659106,-0.14271690423170988,-0.022215946274531224,0,0,0,0
0.008909718337340895,-0.09102908923170987,-0.09524431027453123,0,0,0,0
0.12714168533734088,0.010460457768290129,0.06299161972546877,0,0,0,0
0.10332004533734089,0.03555994376829013,-0.025310059274531227,0,0,0,0
-0.06857631966265912,-0.04608043123170987,-0.25292448027453124,0,0,0,0
-0.2013964446626591,-0.03356126423170987,0.13688553972546877,0,0,0,0
-0.20139501466265913,-0.03289432423170987,0.13661004972546875,0,0,0,0
0.1387500953373409,-0.012790715231709873,0.07831579972546877,0,0,0,0
0.08476010933734088,-0.03305331123170987,-0.30046755027453126,0,0,0,0
-0.0426271276626591,0.006714842168290129,0.08231392972546878,0,0,0,0
-0.05580986466265911,-0.08449974423170988,0.08489120472546877,0,0,0,0
0.1290854653373409,-0.03082280423170987,-0.1966155402745312,0,0,0,0
0.1290854653373409,-0.03082280423170987,-0.1966155402745312,0,0,0,0
0.13951293533734088,0.007572800368290129,-0.006341911874531226,0,0,0,0
-0.12578876466265912,-0.05626739823170987,0.10036729972546878,0,0,0,0
-0.09706304866265911,-0.03966250123170987,0.11543796972546877,0,0,0,0
0.03669349333734089,0.03783385176829013,0.043690589725468784,0,0,0,0
0.03669349333734089,0.03783385176829013,0.043690589725468784,0,0,0,0
0.06888181533734089,0.062319469768290135,-0.017058827274531226,0,0,0,0
-0.08741558466265911,0.037234015768290135,0.07493930972546878,0,0,0,0
-0.08741558466265911,0.037234015768290135,0.07493930972546878,0,0,0,0
-0.1129441146626591,-0.10271376423170987,-0.045634462274531225,0,0,0,0
-0.030122264662659104,-0.051866444231709864,-0.05740328627453122,0,0,0,0
0.08283788533734089,0.022307777768290127,0.061572055725468776,0,0,0,0
0.12143861533734088,0.04447144576829013,0.023451869725468776,0,0,0,0
0.08449527533734089,-0.01840726723170987,-0.18426611027453121,0,0,0,0
-0.1201106846626591,-0.006587883231709871,0.04575997472546877,0,0,0,0
-0.1201106846626591,-0.006587883231709871,0.04575997472546877,0,0,0,0
-0.1201106846626591,-0.006587883231709871,0.04575997472546877,0,0,0,0
-0.20000208466265912,-0.04384022423170987,0.06270719572546876,0,0,0,0
-0.1344984846626591,-0.07187696023170986,0.08982725572546876,0,0,0,0
-0.1344984846626591,-0.07187696023170986,0.08982725572546876,0,0,0,0
0.0805662313373409,0.02923868976829013,0.028016285725468774,0,0,0,0
0.0805662313373409,0.02923868976829013,0.028016285725468774,0,0,0,0
0.1987241953373409,-0.05296367923170987,-0.16407883027453124,0,0,0,0
0.1237636753373409,-0.019154113231709867,0.003084556725468775,0,0,0,0
0.1237636753373409,-0.019154113231709867,0.003084556725468775,0,0,0,0
-0.1450767346626591,0.0020297502082901285,0.08079194972546877,0,0,0,0
-0.1450767346626591,0.0020297502082901285,0.08079194972546877,0,0,0,0
-0.03357828466265911,0.01326624776829013,-0.023563154274531223,0,0,0,0
0.12974588533734088,-0.006091043231709871,-0.1565765502745312,0,0,0,0
0.14260284533734088,0.014048368168290129,-0.04775494027453123,0,0,0,0
0.14260284533734088,0.014048368168290129,-0.04775494027453123,0,0,0,0
-0.11627510466265911,0.009931582768290127,0.07398021972546877,0,0,0,0
-0.11627510466265911,0.009931582768290127,0.07398021972546877,0,0,0,0
-0.13754003466265913,0.03951171976829013,0.11079832972546878,0,0,0,0
0.11391202533734088,-0.10234397423170988,-0.18726155027453123,0,0,0,0
0.11391202533734088,-0.10234397423170988,-0.18726155027453123,0,0,0,0
0.1855078853373409,-0.1274787042317099,-0.08548296027453123,0,0,0,0
0.05575448533734089,-0.07634993423170987,0.023028909725468776,0,0,0,0
-0.06917761166265911,0.005632216168290128,0.07596911672546877,0,0,0,0
-0.06917761166265911,0.005632216168290128,0.07596911672546877,0,0,0,0
-0.08767545966265912,0.022515753768290132,-0.05740562227453123,0,0,0,0
0.11665641533734088,0.010338819768290129,-0.006341321774531225,0,0,0,0
-0.012859423662659106,-0.00034998613170987136,-0.09980445027453123,0,0,0,0
-0.0879433446626591,-0.027927171231709874,-0.09005561627453122,0,0,0,0
-0.0879433446626591,-0.027927171231709874,-0.09005561627453122,0,0,0,0
-0.052762396662659104,0.04968596776829013,0.07956532972546877,0,0,0,0
0.1450532153373409,-0.05342834423170987,0.027179072725468777,0,0,0,0
0.1450532153373409,-0.05342834423170987,0.027179072725468777,0,0,0,0
0.11180612533734088,-0.09057719023170988,-0.11484922027453123,0,0,0,0
0.0387060323373409,0.02527393776829013,0.07198547972546877,0,0,0,0
-0.15594738466265912,0.12445003576829013,0.07235764972546878,0,0,0,0
-0.1261534546626591,0.04549111576829013,-0.06603299527453123,0,0,0,0
-0.1261534546626591,0.04549111576829013,-0.06603299527453123,0,0,0,0
0.05688716533734089,-0.0022292788317098714,0.07270367972546878,0,0,0,0
0.05688716533734089,-0.0022292788317098714,0.07270367972546878,0,0,0,0
0.12601262533734087,-0.00851777423170987,0.05427704272546878,0,0,0,0
-0.07872942466265911,-0.03054813723170987,-0.06100009027453122,0,0,0,0
-0.07872942466265911,-0.03054813723170987,-0.06100009027453122,0,0,0,0
-0.15265596466265913,0.09533645576829013,0.019209179725468775,0,0,0,0
-0.012132723662659106,0.07603922576829013,0.012615714725468775,0,0,0,0
0.09817277533734088,-0.07773767423170987,-0.0008960382745312259,0,0,0,0
0.09817277533734088,-0.07773767423170987,-0.0008960382745312259,0,0,0,0
-0.030368979662659105,0.08165346976829013,0.08066283272546877,0,0,0,0
-0.030368979662659105,0.08165346976829013,0.08066283272546877,0,0,0,0
-0.030368979662659105,0.08165346976829013,0.08066283272546877,0,0,0,0
-0.019312174662659106,-0.008927228231709872,-0.11755503027453124,0,0,0,0
0.010522572337340896,0.005400893568290129,0.050661769725468785,0,0,0,0
0.010522572337340896,0.005400893568290129,0.050661769725468785,0,0,0,0
0.06596404533734089,-0.01490051723170987,0.03859905172546878,0,0,0,0
0.020676629337340893,-0.04324176223170987,-0.020015694274531225,0,0,0,0
-0.07920082466265911,-0.0009050752317098713,-0.07092732027453122,0,0,0,0
-0.0598317946626591,0.10012702576829013,0.07206965572546878,0,0,0,0
0.005382363337340895,0.09799425076829013,0.05864464972546877,0,0,0,0
0.03900205333734089,-0.060829824231709864,-0.11423508027453123,0,0,0,0
0.03900205333734089,-0.060829824231709864,-0.11423508027453123,0,0,0,0
-0.017694838662659106,0.04148123576829013,0.054191176725468776,0,0,0,0
-0.07595213466265911,0.09069181576829012,0.03815178072546878,0,0,0,0
-0.048677809662659104,0.025256662768290132,-0.08473443027453123,0,0,0,0
0.09527656533734088,0.007610094968290129,0.012102211725468773,0,0,0,0
0.09527656533734088,0.007610094968290129,0.012102211725468773,0,0,0,0
0.017314259337340893,0.009500584768290129,-0.04736687727453122,0,0,0,0
-0.04933317466265911,0.014690494768290128,0.07362687972546877,0,0,0,0
0.0005356949373408948,0.057314032768290134,0.05043620972546878,0,0,0,0
0.07698041533734089,0.0007978115682901285,-0.16108800027453124,0,0,0,0
0.07698041533734089,0.0007978115682901285,-0.16108800027453124,0,0,0,0
0.007977406337340894,0.06528001576829014,-0.010402818074531226,0,0,0,0
0.007977406337340894,0.06528001576829014,-0.010402818074531226,0,0,0,0
0.09275180533734088,0.05658414576829013,-0.03332180527453123,0,0,0,0
0.09275180533734088,0.05658414576829013,-0.03332180527453123,0,0,0,0
-0.0444128826626591,0.07399272576829014,0.055831169725468775,0,0,0,0
-0.0444128826626591,0.07399272576829014,0.055831169725468775,0,0,0,0
-0.0444128826626591,0.07399272576829014,0.055831169725468775,0,0,0,0
-0.0444128826626591,0.07399272576829014,0.055831169725468775,0,0,0,0
0.1083565853373409,-0.02920689223170987,0.033238403725468775,0,0,0,0
0.1089389053373409,-0.043080874231709865,0.036454267725468774,0,0,0,0
0.0029157799373408944,-0.0021355520317098715,-0.05260921827453122,0,0,0,0
0.0029157799373408944,-0.0021355520317098715,-0.05260921827453122,0,0,0,0
-0.0440833886626591,0.10366873576829012,0.054410843725468776,0,0,0,0
-0.0440833886626591,0.10366873576829012,0.054410843725468776,0,0,0,0
0.06610347533734089,-0.03611287423170987,-0.09762670027453123,0,0,0,0
0.040510289337340896,-0.03657566823170987,-0.02411640427453123,0,0,0,0
0.011764351337340898,0.06738140076829013,0.03862968572546878,0,0,0,0
0.003589550837340894,0.06091968576829013,0.027806029725468775,0,0,0,0
-0.03987797066265911,0.033007425768290126,-0.045631774274531224,0,0,0,0
-0.0554263906626591,0.007153406468290129,-0.015966649274531224,0,0,0,0
0.0512612503373409,0.007277734268290128,0.03434449272546878,0,0,0,0
0.020389477337340894,0.06361442276829013,-0.03562219327453122,0,0,0,0
0.029136578337340895,0.09024701576829013,-0.06104165027453123,0,0,0,0
0.058444895337340895,0.07214096276829013,0.049319889725468774,0,0,0,0
0.012708585337340896,0.01966647276829013,-0.000545968274531225,0,0,0,0
0.012708585337340896,0.01966647276829013,-0.000545968274531225,0,0,0,0
-0.010522635662659107,-0.043262862231709866,-0.010679353774531225,0,0,0,0
-0.010522635662659107,-0.043262862231709866,-0.010679353774531225,0,0,0,0
-0.11676224466265912,0.04349298776829013,0.09699915972546877,0,0,0,0
-0.009718306662659106,0.019630727768290127,0.05317766972546877,0,0,0,0
-0.009718306662659106,0.019630727768290127,0.05317766972546877,0,0,0,0
0.11037456533734089,0.0066022899682901285,-0.07212342027453122,0,0,0,0
-0.006065734062659105,0.06700429976829013,0.06637249472546877,0,0,0,0
-0.1266958046626591,0.06460784576829012,0.06994567972546877,0,0,0,0
-0.1520061346626591,0.01783092676829013,0.04964178672546878,0,0,0,0
-0.07548855166265911,-0.005811756231709871,0.005805329725468774,0,0,0,0
0.023439328337340894,0.006834871368290129,0.007353029725468775,0,0,0,0
0.07930280533734088,-0.036708009231709866,-0.029799129274531228,0,0,0,0
0.07930280533734088,-0.036708009231709866,-0.029799129274531228,0,0,0,0
-0.1091005146626591,0.03064835076829013,0.09067077972546878,0,0,0,0
-0.05867336466265911,0.04194096576829013,0.04771379972546878,0,0,0,0
-0.05867336466265911,0.04194096576829013,0.04771379972546878,0,0,0,0
0.17285949533734088,0.008442452768290129,-0.10116790727453123,0,0,0,0
0.1340118553373409,-0.002986616231709871,0.012630380725468775,0,0,0,0
-0.10574072466265912,-0.014677375231709871,-0.012653227274531225,0,0,0,0
-0.2306750146626591,-0.051341074231709874,-0.028657324274531226,0,0,0,0
-0.12381323466265912,-0.06098095423170988,0.10201195972546875,0,0,0,0
0.038705842337340896,0.07525041176829013,0.07180936972546878,0,0,0,0
0.1599472253373409,0.05147705976829013,0.014902009725468773,0,0,0,0
0.1599472253373409,0.05147705976829013,0.014902009725468773,0,0,0,0
0.07871391033734089,-0.08244038823170988,-0.2740481402745312,0,0,0,0
-0.0438134046626591,0.02295086976829013,0.09178662972546878,0,0,0,0
-0.1768797746626591,0.07362099976829013,0.1289162297254688,0,0,0,0
-0.1369694546626591,0.07792977176829013,0.15849681972546878,0,0,0,0
0.023789422337340896,-0.03063718923170987,0.02505322572546877,0,0,0,0
0.19132234533734088,-0.040859368231709874,-0.06439143027453122,0,0,0,0
0.1293021353373409,0.023712268768290128,0.050631729725468776,0,0,0,0
-0.011986430662659104,0.07596691876829013,0.06705673972546877,0,0,0,0
-0.0559798076626591,0.02680599776829013,0.05352113972546878,0,0,0,0
-0.08510931466265911,-0.02981201923170987,-0.013943268274531226,0,0,0,0
-0.08510931466265911,-0.02981201923170987,-0.013943268274531226,0,0,0,0
-0.19365499466265912,-0.03389043423170987,-0.20184484027453123,0,0,0,0
-0.004893096062659106,0.02888756776829013,0.07353317972546877,0,0,0,0
0.12170097533734087,-0.005357905231709871,0.07914780972546877,0,0,0,0
0.12170097533734087,-0.005357905231709871,0.07914780972546877,0,0,0,0
0.11804725533734088,-0.06114006023170987,-0.11976522027453124,0,0,0,0
0.040370765337340894,-0.05931676023170987,-0.21411682027453122,0,0,0,0
-0.0337806546626591,0.03265063176829013,0.04834993372546878,0,0,0,0
-0.20070598466265913,0.09838385576829013,0.07957245972546877,0,0,0,0
-0.2095708246626591,0.07202119276829012,0.07935980972546877,0,0,0,0
-0.0394208746626591,-0.027377194231709874,0.05857608972546877,0,0,0,0
0.1692076853373409,-0.006616848231709872,-0.06377323427453123,0,0,0,0
0.056738395337340895,0.016276303768290125,-0.14897338027453122,0,0,0,0
-0.1990998146626591,0.03837239776829013,0.12673753972546875,0,0,0,0
-0.1990998146626591,0.03837239776829013,0.12673753972546875,0,0,0,0
-0.1990998146626591,0.03837239776829013,0.12673753972546875,0,0,0,0
-0.0701616146626591,-0.010061640231709872,0.09134239372546878,0,0,0,0
-0.0701616146626591,-0.010061640231709872,0.09134239372546878,0,0,0,0
0.2514366253373409,-0.04981290023170987,-0.14832720027453122,0,0,0,0
0.18415929533734088,-0.04744833623170987,-0.3158099002745312,0,0,0,0
-0.0641276196626591,0.05586634876829013,0.04311992372546877,0,0,0,0
-0.2325353946626591,0.07272454576829014,0.08845625372546877,0,0,0,0
-0.24044979466265912,0.011201630268290129,-0.0021225407745312248,0,0,0,0
0.037975708337340895,-0.04573837223170987,0.05138079372546877,0,0,0,0
0.1793972153373409,-0.010852499231709872,-0.004085715274531226,0,0,0,0
-0.20662783466265913,-0.0031123767317098715,0.09047466972546878,0,0,0,0
-0.19446795466265912,-0.0009778192317098718,0.11111308972546877,0,0,0,0
-0.06000917466265911,0.009588437268290128,0.062263479725468786,0,0,0,0
0.019727150337340894,-0.0024256508317098717,-0.14337997027453123,0,0,0,0
0.2767609753373409,0.011448940768290129,-0.022796906274531223,0,0,0,0
-0.0477713426626591,0.005372134768290128,-0.053686550274531224,0,0,0,0
-0.0477713426626591,0.005372134768290128,-0.053686550274531224,0,0,0,0
-0.0477713426626591,0.005372134768290128,-0.053686550274531224,0,0,0,0
-0.1473357046626591,-0.009570670231709872,0.05637763972546878,0,0,0,0
-0.1473357046626591,-0.009570670231709872,0.05637763972546878,0,0,0,0
0.1406485753373409,-0.05874778023170987,-0.15907410027453123,0,0,0,0
0.0345403833373409,0.0065533367682901284,-0.003738631274531225,0,0,0,0
0.0345403833373409,0.0065533367682901284,-0.003738631274531225,0,0,0,0
-0.10531891466265911,-0.024100747231709872,-0.021636040274531226,0,0,0,0
-0.05902508066265911,0.03184352276829013,0.10652903972546877,0,0,0,0
-0.05902508066265911,0.03184352276829013,0.10652903972546877,0,0,0,0
0.0016962213373408943,0.07126575576829013,0.04900698972546878,0,0,0,0
0.11009666533734089,0.017966477768290127,-0.04518070327453123,0,0,0,0
0.07636901533734089,-0.08091846023170987,-0.09987429527453123,0,0,0,0
-0.1899008546626591,0.0014605433682901286,0.08110542972546878,0,0,0,0
-0.1899008546626591,0.0014605433682901286,0.08110542972546878,0,0,0,0
0.0005219620373408942,-0.03003945923170987,0.024769557725468776,0,0,0,0
0.08635026533734089,-0.04466215423170987,-0.14421325027453125,0,0,0,0
0.18555652533734088,-0.03125342423170987,-0.09590259327453124,0,0,0,0
0.0017548723373408941,0.03805769176829013,-0.061075957274531224,0,0,0,0
-0.11839378466265911,0.05258960576829014,0.018653759725468774,0,0,0,0
-0.1684779046626591,0.03483101576829013,0.07620368972546877,0,0,0,0
-0.14331329466265913,-0.001407793431709871,0.05550336972546877,0,0,0,0
-0.032132800662659104,-0.04901996823170987,-0.025997276274531227,0,0,0,0
0.1447821753373409,-0.06218100423170987,-0.07013569627453123,0,0,0,0
0.1447821753373409,-0.06218100423170987,-0.07013569627453123,0,0,0,0
0.03155738533734089,-0.02241448823170987,-0.07867387027453124,0,0,0,0
-0.1169625146626591,0.013240792768290129,0.08521601972546877,0,0,0,0
-0.1298250946626591,-0.0028261352317098714,0.08448711972546877,0,0,0,0
0.1670221453373409,0.0070379052682901285,-0.07356912027453123,0,0,0,0
0.06495877933734089,0.01959857976829013,-0.09665089427453123,0,0,0,0
0.06495877933734089,0.01959857976829013,-0.09665089427453123,0,0,0,0
-0.17118452466265913,-0.028282940231709873,0.04870508972546878,0,0,0,0
-0.020609267662659105,-0.01823962623170987,0.07379632972546876,0,0,0,0
0.2177945253373409,0.004427138468290129,-0.14509427027453123,0,0,0,0
0.2177945253373409,0.004427138468290129,-0.14509427027453123,0,0,0,0
0.2177945253373409,0.004427138468290129,-0.14509427027453123,0,0,0,0
-0.1307453946626591,0.006112138968290128,0.007385234725468774,0,0,0,0
-0.1307453946626591,0.006112138968290128,0.007385234725468774,0,0,0,0
-0.08501585466265911,-0.03184200823170987,0.08253820372546877,0,0,0,0
-0.08501585466265911,-0.03184200823170987,0.08253820372546877,0,0,0,0
0.03705703533734089,0.008771889368290129,0.050822459725468776,0,0,0,0
0.1294625453373409,-0.0016152102317098715,-0.06396337027453122,0,0,0,0
0.20760862533734087,-0.04115940623170987,-0.15841335027453124,0,0,0,0
-0.1378599946626591,0.02686500476829013,0.07301751972546877,0,0,0,0
-0.1610529746626591,-0.007701544731709871,0.09021082372546876,0,0,0,0
-0.11436451466265911,0.01134661976829013,0.05908876472546878,0,0,0,0
-0.11436451466265911,0.01134661976829013,0.05908876472546878,0,0,0,0
-0.0019668418626591056,0.05250272176829013,-0.029543628274531226,0,0,0,0
0.24356567533734091,-0.03965069023170987,-0.16479351027453124,0,0,0,0
0.12973844533734089,-0.08227102123170986,-0.08361529027453123,0,0,0,0
-0.11987570466265911,-0.059873984231709865,0.10261529972546878,0,0,0,0
-0.11987570466265911,-0.059873984231709865,0.10261529972546878,0,0,0,0
-0.12101238466265911,0.01655246076829013,0.13097368972546877,0,0,0,0
0.1749473753373409,-0.026776714231709874,-0.19913244027453122,0,0,0,0
0.1749473753373409,-0.026776714231709874,-0.19913244027453122,0,0,0,0
0.2544174253373409,-0.03904288023170987,-0.16853768027453123,0,0,0,0
0.12525321533734088,-0.002401948231709871,-0.06532718727453123,0,0,0,0
-0.17755583466265912,-0.047001994231709865,0.05376073572546877,0,0,0,0
-0.17755583466265912,-0.047001994231709865,0.05376073572546877,0,0,0,0
0.0069405713373408935,0.027810818768290134,0.060098999725468776,0,0,0,0
0.24618569533734092,-0.023527300231709875,-0.06509758427453123,0,0,0,0
0.2649177753373409,-0.058806064231709865,-0.3063053802745312,0,0,0,0
0.1942540353373409,-0.008745647231709872,-0.12579673027453123,0,0,0,0
0.1942540353373409,-0.008745647231709872,-0.12579673027453123,0,0,0,0
-0.1661351046626591,0.006210689768290129,0.08473062972546877,0,0,0,0
-0.27444837466265914,0.024476969768290127,0.09434735972546876,0,0,0,0
-0.25947841466265914,0.03729541976829013,0.06126610972546879,0,0,0,0
-0.1301935046626591,0.03895502176829013,0.0011818807254687742,0,0,0,0
0.1678810253373409,-0.0005104351317098714,-0.08625523027453122,0,0,0,0
0.1678810253373409,-0.0005104351317098714,-0.08625523027453122,0,0,0,0
0.2371515453373409,-0.04506550423170987,-0.061434795274531225,0,0,0,0
-0.021838744662659105,-0.020444416231709873,0.013320879725468773,0,0,0,0
-0.1498009546626591,0.04508382176829013,0.07598256272546877,0,0,0,0
-0.06593941066265911,0.06677691976829013,0.03517504172546878,0,0,0,0
0.0988793553373409,-0.07845184423170987,-0.10349897027453123,0,0,0,0
-0.1141820746626591,0.022499853768290126,0.11192065972546877,0,0,0,0
0.009718148337340894,0.04949547076829013,-0.012954087574531224,0,0,0,0
0.07013456033734089,0.012547958768290129,-0.13631765027453124,0,0,0,0
0.07013456033734089,0.012547958768290129,-0.13631765027453124,0,0,0,0
0.04402219533734089,-0.004282968731709871,0.006714085725468776,0,0,0,0
-0.0935654476626591,-0.025562780231709874,-0.08664230027453122,0,0,0,0
-0.06783092766265911,0.03247603576829013,0.04361927972546878,0,0,0,0
0.1266538753373409,-0.05357879923170986,-0.09473677027453123,0,0,0,0
0.1266538753373409,-0.05357879923170986,-0.09473677027453123,0,0,0,0
0.1266538753373409,-0.05357879923170986,-0.09473677027453123,0,0,0,0
0.1409149353373409,-0.07155258423170988,0.05316147972546878,0,0,0,0
0.007871548337340894,-0.04162991623170987,0.05720040972546878,0,0,0,0
0.007871548337340894,-0.04162991623170987,0.05720040972546878,0,0,0,0
-0.06834238466265911,0.04165580576829013,-0.0036006762745312256,0,0,0,0
-0.0987994046626591,0.03273716876829013,0.023976479725468774,0,0,0,0
0.08513910033734089,-0.03190154123170987,0.032506699725468775,0,0,0,0
0.08513910033734089,-0.03190154123170987,0.032506699725468775,0,0,0,0
0.09085284933734089,-0.055088734231709874,-0.05008337627453122,0,0,0,0
-0.012043650662659104,0.01361430276829013,0.06650541972546878,0,0,0,0
-0.012043650662659104,0.01361430276829013,0.06650541972546878,0,0,0,0
-0.0641539416626591,0.03783054576829013,0.07365405972546876,0,0,0,0
-0.0641539416626591,0.03783054576829013,0.07365405972546876,0,0,0,0
0.09927646533734089,0.007983398168290128,-0.013155277274531224,0,0,0,0
0.10278875533734089,-0.014583210231709871,-0.003574784274531225,0,0,0,0
0.038407723337340896,-0.032154637231709866,-0.08912705327453123,0,0,0,0
-0.14572409466265912,0.03138251076829013,-0.028508265274531226,0,0,0,0
-0.0531673266626591,-0.08364111423170988,0.07319836972546877,0,0,0,0
-0.0531673266626591,-0.08364111423170988,0.07319836972546877,0,0,0,0
0.11399919533734089,-0.022861064231709867,0.025453857725468775,0,0,0,0
0.11399919533734089,-0.022861064231709867,0.025453857725468775,0,0,0,0
0.14863196533734088,0.009464781768290128,-0.10060050627453124,0,0,0,0
0.14863196533734088,0.009464781768290128,-0.10060050627453124,0,0,0,0
-0.11050547466265911,0.0016506296682901286,0.08856311272546877,0,0,0,0
-0.11050547466265911,0.0016506296682901286,0.08856311272546877,0,0,0,0
-0.0698826646626591,-0.01358718523170987,0.03443538972546877,0,0,0,0
-0.0698826646626591,-0.01358718523170987,0.03443538972546877,0,0,0,0
0.1249441253373409,-0.009396600231709872,-0.029983200274531226,0,0,0,0
0.023857515337340898,0.06960802076829013,-0.020724423274531223,0,0,0,0
-0.0923986246626591,0.05521057876829013,-0.1519354402745312,0,0,0,0
-0.037375147662659106,-0.012271014231709872,0.060491909725468786,0,0,0,0
-0.052948934662659104,-0.05951049923170987,0.11185419972546876,0,0,0,0
0.0716872353373409,0.010554972768290129,0.061979169725468776,0,0,0,0
0.14357062533734088,0.03301715576829013,0.028109515725468773,0,0,0,0
0.14357062533734088,0.03301715576829013,0.028109515725468773,0,0,0,0
-0.09169777466265912,0.028238105768290132,-0.14518002027453125,0,0,0,0
-0.09169777466265912,0.028238105768290132,-0.14518002027453125,0,0,0,0
-0.08229120466265911,-0.04363923623170987,0.11331843972546876,0,0,0,0
-0.08229120466265911,-0.04363923623170987,0.11331843972546876,0,0,0,0
0.07224666533734089,-0.02803405423170987,0.07943866972546877,0,0,0,0
0.0557138603373409,0.14411980576829012,-0.0008203998745312255,0,0,0,0
0.0557138603373409,0.14411980576829012,-0.0008203998745312255,0,0,0,0
-0.027489169662659102,0.11979556576829012,0.06634215572546877,0,0,0,0
-0.10091293466265912,0.01691220476829013,0.06874828972546877,0,0,0,0
-0.061810474662659105,-0.09408652423170986,0.019326839725468774,0,0,0,0
0.03250085533734089,-0.03602382423170987,0.05173425472546878,0,0,0,0
0.08740426533734089,0.03512429976829013,0.04054837972546878,0,0,0,0
0.004664151337340894,-0.020911566231709873,-0.17327792027453123,0,0,0,0
-0.0019741851626591056,0.01758630476829013,0.06608643372546877,0,0,0,0
-0.0407831986626591,0.03661477276829013,0.08982263672546878,0,0,0,0
-0.0407831986626591,0.03661477276829013,0.08982263672546878,0,0,0,0
0.0282815153373409,-0.016858869231709872,-0.2538938402745312,0,0,0,0
0.0282815153373409,-0.016858869231709872,-0.2538938402745312,0,0,0,0
0.042507092337340895,0.011056317768290129,0.012325553725468775,0,0,0,0
-0.07606266466265911,0.016655452768290127,0.06645373972546878,0,0,0,0
-0.07584827466265912,0.0015910965282901286,0.049857823725468785,0,0,0,0
-0.07584827466265912,0.0015910965282901286,0.049857823725468785,0,0,0,0
0.14198552533734088,-0.007641865231709871,-0.06644333027453123,0,0,0,0
0.07671910933734089,-0.022463004231709875,-0.043413462274531224,0,0,0,0
-0.011098178062659106,-0.029917644231709867,0.008336953725468773,0,0,0,0
-0.011098178062659106,-0.029917644231709867,0.008336953725468773,0,0,0,0
-0.1756427646626591,0.01757756576829013,0.03356509672546878,0,0,0,0
-0.07312687466265912,0.004293253368290129,0.05672812272546877,0,0,0,0
0.0537254493373409,-0.027918901231709876,0.010421065725468772,0,0,0,0
0.09080774033734089,-0.051495214231709864,-0.10118416027453123,0,0,0,0
0.0995220353373409,-0.06850059023170987,-0.1325854802745312,0,0,0,0
-0.020022757662659103,0.04240919376829013,0.06347764972546877,0,0,0,0
-0.020022757662659103,0.04240919376829013,0.06347764972546877,0,0,0,0
-0.16506355466265912,0.12344031576829013,0.06110168572546878,0,0,0,0
0.09322873533734088,-0.00898565123170987,0.0038609727254687734,0,0,0,0
0.09322873533734088,-0.00898565123170987,0.0038609727254687734,0,0,0,0
0.09322873533734088,-0.00898565123170987,0.0038609727254687734,0,0,0,0
0.1383581353373409,-0.07827479423170987,-0.03612985027453122,0,0,0,0
-0.08715246466265911,0.02491103476829013,0.09426734972546877,0,0,0,0
-0.08715246466265911,0.02491103476829013,0.09426734972546877,0,0,0,0
0.07534629533734089,-0.03107505723170987,-0.17932638027453124,0,0,0,0
0.1517480053373409,-0.0013503642317098715,0.07808286372546877,0,0,0,0
-0.10820005466265911,0.11721364576829013,0.09981123972546878,0,0,0,0
-0.04190843866265911,-0.05023846023170987,-0.14489711027453123,0,0,0,0
-0.04190843866265911,-0.05023846023170987,-0.14489711027453123,0,0,0,0
0.06677972533734089,0.014108340768290128,0.04304609972546877,0,0,0,0
0.10974218533734088,0.0059139282682901285,0.03400155772546878,0,0,0,0
0.09308959533734089,-0.027460574231709868,-0.06412184427453123,0,0,0,0
-0.0364008746626591,-0.05902715423170987,-0.23930424027453123,0,0,0,0
-0.0364008746626591,-0.05902715423170987,-0.23930424027453123,0,0,0,0
-0.10922458466265912,0.022676438768290126,0.12346566972546877,0,0,0,0
0.13692914533734088,0.027584931768290126,0.06737827972546877,0,0,0,0
0.15124017533734088,-0.05537234423170987,-0.2544979402745312,0,0,0,0
0.009363858337340894,0.03354544576829013,0.06849109372546877,0,0,0,0
-0.0648120746626591,0.08041565576829013,0.07663102972546877,0,0,0,0
-0.0642819246626591,0.04943582176829013,0.09042393372546878,0,0,0,0
-0.015018256662659105,-0.03595067223170987,0.006054101725468774,0,0,0,0
0.024129883337340896,-0.10012050423170987,-0.15221578027453123,0,0,0,0
0.10368081533734089,-0.03965104223170987,-0.015464951274531225,0,0,0,0
0.07819806533734089,0.030284105768290125,0.011804274725468772,0,0,0,0
-0.037568648662659104,-0.011218905231709871,-0.1509740802745312,0,0,0,0
-0.037568648662659104,-0.011218905231709871,-0.1509740802745312,0,0,0,0
-0.021298583662659104,-0.024904289231709877,0.08042189372546878,0,0,0,0
-0.08101814466265911,-0.036515054231709865,0.07813839972546877,0,0,0,0
-0.034902461662659104,-0.027338000231709875,0.07209548972546878,0,0,0,0
-0.015551074162659106,0.02660717276829013,-0.2227502702745312,0,0,0,0
-0.015551074162659106,0.02660717276829013,-0.2227502702745312,0,0,0,0
0.018188206337340893,0.08971832576829013,0.047349229725468775,0,0,0,0
-0.0597874476626591,0.03797267376829013,0.03219403772546878,0,0,0,0
-0.028137762662659105,-0.04741922423170987,-0.13729038027453122,0,0,0,0
0.012221066337340894,-0.05030293423170987,0.043364659725468775,0,0,0,0
-0.03303058966265911,-0.01983043223170987,0.04901125972546878,0,0,0,0
-0.03303058966265911,-0.01983043223170987,0.04901125972546878,0,0,0,0
0.009302823337340893,-0.004783466231709871,0.06853358572546878,0,0,0,0
-0.009990294662659105,-0.012958413231709872,-0.018883295274531225,0,0,0,0
-0.009990294662659105,-0.012958413231709872,-0.018883295274531225,0,0,0,0
0.08937284133734089,-0.006563509231709872,0.028275815725468775,0,0,0,0
0.028889863337340893,-0.016459202231709873,-0.05648517727453122,0,0,0,0
0.028889863337340893,-0.016459202231709873,-0.05648517727453122,0,0,0,0
-0.09185522466265911,0.032913840768290126,0.05835372972546878,0,0,0,0
-0.09294594066265911,0.03200236876829013,0.06489792272546877,0,0,0,0
0.06146547033734089,-0.055405574231709866,-0.04526628427453123,0,0,0,0
-0.0410731146626591,-0.01675260623170987,-0.0014608636745312249,0,0,0,0
0.1121524053373409,-0.03500780723170987,-0.03166672727453122,0,0,0,0
-0.043524916662659105,-0.02953352623170987,-0.016662635274531226,0,0,0,0
-0.14861277466265913,0.021356761768290128,0.08144053672546878,0,0,0,0
-0.14861277466265913,0.021356761768290128,0.08144053672546878,0,0,0,0
0.13326741533734088,-0.024682900231709867,-0.12777551027453124,0,0,0,0
0.1041567053373409,-0.0036636959317098714,-0.06021215427453122,0,0,0,0
-0.008901961462659105,0.007786004768290129,0.05651856472546877,0,0,0,0
-0.008901961462659105,0.007786004768290129,0.05651856472546877,0,0,0,0
-0.09526432466265912,0.00870598476829013,0.03618380972546877,0,0,0,0
-0.1261366646626591,0.016613835768290126,0.012674806725468776,0,0,0,0
-0.036883147662659106,-0.031124037231709867,-0.025469161274531225,0,0,0,0
0.06617309533734089,-0.049668614231709866,-0.03781350427453122,0,0,0,0
0.02750016833734089,0.006832913768290129,0.013025169725468775,0,0,0,0
0.02750016833734089,0.006832913768290129,0.013025169725468775,0,0,0,0
0.012596432337340896,0.019160887768290127,0.03230445272546877,0,0,0,0
-0.005459387912659106,0.02183554576829013,-0.021165742274531225,0,0,0,0
0.043430725337340895,0.019894580768290128,-0.030782820274531227,0,0,0,0
0.05494071533734089,-0.006093233231709872,-0.07346297027453122,0,0,0,0
-0.029431326662659105,-0.007197922231709871,-0.08766574027453124,0,0,0,0
-0.11355141466265913,0.0027057793682901286,0.07258824572546876,0,0,0,0
-0.11772869466265912,-0.02057394323170987,0.08256147372546876,0,0,0,0
0.010778634337340897,-0.04773880823170987,0.06444918372546878,0,0,0,0
0.1991132853373409,0.008119826468290129,-0.14363313027453123,0,0,0,0
0.044722859337340895,0.053375875768290136,-0.04294859327453122,0,0,0,0
-0.10479124466265913,-0.020685122231709874,0.014910779725468774,0,0,0,0
-0.10479124466265913,-0.020685122231709874,0.014910779725468774,0,0,0,0
-0.08138120966265912,-0.023428809231709875,0.08591656972546877,0,0,0,0
0.0960812753373409,-0.04136013023170987,-0.21191533027453124,0,0,0,0
0.0960812753373409,-0.04136013023170987,-0.21191533027453124,0,0,0,0
0.0960812753373409,-0.04136013023170987,-0.21191533027453124,0,0,0,0
0.14078590533734087,-0.031218847231709868,-0.24947928027453126,0,0,0,0
-0.021631510662659104,0.014270106768290129,0.09463143972546878,0,0,0,0
-0.021631510662659104,0.014270106768290129,0.09463143972546878,0,0,0,0
-0.021631510662659104,0.014270106768290129,0.09463143972546878,0,0,0,0
-0.0635269006626591,0.04659183076829013,0.08370882972546877,0,0,0,0
0.08485585833734088,-0.0036888907317098717,-0.17834898027453122,0,0,0,0
0.08485585833734088,-0.0036888907317098717,-0.17834898027453122,0,0,0,0
0.040675655337340896,0.03720671576829013,0.03501786472546878,0,0,0,0
-0.07394474466265911,-0.043092739231709865,-0.053968294274531224,0,0,0,0
0.09220372833734089,0.02082911476829013,0.048614959725468775,0,0,0,0
0.09220372833734089,0.02082911476829013,0.048614959725468775,0,0,0,0
0.07212764533734088,-0.03495222023170987,-0.11144069027453124,0,0,0,0
-0.07308615066265911,0.05971267576829013,0.07447747472546877,0,0,0,0
-0.07308615066265911,0.05971267576829013,0.07447747472546877,0,0,0,0
0.0536612653373409,0.049825725768290134,0.06931731572546877,0,0,0,0
0.036945835337340895,0.04523199876829013,0.06621291972546876,0,0,0,0
-0.023498518662659104,0.0007753078682901286,-0.11223541027453122,0,0,0,0
-0.023498518662659104,0.0007753078682901286,-0.11223541027453122,0,0,0,0
0.027335183337340897,0.022485152768290127,0.045414229725468776,0,0,0,0
-0.049637587662659105,-0.02911866223170987,-0.05828095027453122,0,0,0,0
-0.048819048662659105,-0.06390721423170986,0.07422379972546878,0,0,0,0
-0.048819048662659105,-0.06390721423170986,0.07422379972546878,0,0,0,0
0.08918706533734089,0.02367962376829013,-0.10060870027453123,0,0,0,0
0.08918706533734089,0.02367962376829013,-0.10060870027453123,0,0,0,0
-0.05321672766265911,0.02782046576829013,0.010258392725468773,0,0,0,0
-0.05321672766265911,0.02782046576829013,0.010258392725468773,0,0,0,0
-0.08405435866265912,0.03567763576829013,0.04324448572546878,0,0,0,0
0.027455822337340896,0.03215577576829013,-0.035952970274531225,0,0,0,0
0.12580711533734087,-0.007753421631709872,-0.09280479727453123,0,0,0,0
0.1180657553373409,-0.0007485400317098715,-0.05304784327453122,0,0,0,0
-0.0595586616626591,0.021635782768290125,0.029277859725468775,0,0,0,0
-0.0595586616626591,0.021635782768290125,0.029277859725468775,0,0,0,0
-0.04208706166265911,0.006888735368290128,0.03235051472546878,0,0,0,0
0.008110253337340893,0.01998909776829013,0.054720579725468774,0,0,0,0
-0.030741104662659106,0.02085144276829013,0.045395289725468774,0,0,0,0
-0.14136150466265912,0.0025661376182901287,0.09529481972546877,0,0,0,0
-0.1382305946626591,0.005477495168290128,0.11597589972546876,0,0,0,0
-0.022630770662659103,0.01579743376829013,0.08044339972546877,0,0,0,0
0.11173583533734088,0.01673243376829013,-0.022539533274531225,0,0,0,0
-0.14765623466265912,0.029715892768290127,-0.04327668727453122,0,0,0,0
-0.09852731966265911,-0.00805082573170987,0.09261126972546876,0,0,0,0
-0.09852731966265911,-0.00805082573170987,0.09261126972546876,0,0,0,0
-0.0718150946626591,-0.004090603231709872,0.06278335972546877,0,0,0,0
0.13124095533734087,-0.008909956631709872,-0.12661126027453123,0,0,0,0
0.1944996053373409,0.02296329176829013,-0.10879141027453122,0,0,0,0
0.08050929533734089,0.07683458576829012,-0.004638029674531225,0,0,0,0
-0.08871668166265911,0.05112830576829013,-0.023410650274531226,0,0,0,0
-0.1290087546626591,-0.027069562231709872,-0.003623594274531226,0,0,0,0
-0.1150198746626591,-0.052352384231709875,0.07733642972546877,0,0,0,0
0.1384884953373409,-0.040812837231709864,-0.1378780402745312,0,0,0,0
0.1384884953373409,-0.040812837231709864,-0.1378780402745312,0,0,0,0
-0.010162242062659105,0.013851676768290128,0.03666118972546877,0,0,0,0
-0.010162242062659105,0.013851676768290128,0.03666118972546877,0,0,0,0
-0.039093287662659106,-0.011376376231709872,0.09894334972546878,0,0,0,0
-0.010668833662659107,-0.00920382473170987,0.0032881483254687755,0,0,0,0
0.0056944053373408935,0.01087444316829013,-0.05132368327453122,0,0,0,0
0.06811067533734089,-0.00957613723170987,-0.036926146274531224,0,0,0,0
0.06811067533734089,-0.00957613723170987,-0.036926146274531224,0,0,0,0
-0.05835865466265911,-0.0008442848317098714,-0.020409538274531226,0,0,0,0
-0.0545368046626591,0.027333733768290125,0.05192842972546878,0,0,0,0
-0.0545368046626591,0.027333733768290125,0.05192842972546878,0,0,0,0
0.020216481337340896,-0.02763438423170987,-0.03786518027453122,0,0,0,0
0.035029713337340895,-0.01692369223170987,-0.0027580932745312247,0,0,0,0
0.040656105337340896,0.0022828486655901287,-0.014850856274531225,0,0,0,0
0.040656105337340896,0.0022828486655901287,-0.014850856274531225,0,0,0,0
0.004855744337340894,-0.0018717872317098715,-0.015643526674531227,0,0,0,0
-0.0517823046626591,-0.06096245023170986,0.013034461725468776,0,0,0,0
0.016633622337340895,-0.0024149249317098713,-0.1666187502745312,0,0,0,0
0.016633622337340895,-0.0024149249317098713,-0.1666187502745312,0,0,0,0
0.0330767793373409,-0.03432853423170987,-0.05914341027453122,0,0,0,0
-0.032435782662659104,-0.04889560923170987,0.07722887972546877,0,0,0,0
-0.032435782662659104,-0.04889560923170987,0.07722887972546877,0,0,0,0
-0.051452334662659104,0.04120128176829013,0.08283426572546877,0,0,0,0
-0.051452334662659104,0.04120128176829013,0.08283426572546877,0,0,0,0
0.06712094933734089,0.09623311176829014,0.028533641725468777,0,0,0,0
0.050457589337340895,0.04229913076829013,-0.18003295027453123,0,0,0,0
-0.14339626466265912,-0.06165142423170987,0.060181419725468775,0,0,0,0
-0.1487066146626591,-0.05452920423170987,0.06699881372546877,0,0,0,0
-0.1487066146626591,-0.05452920423170987,0.06699881372546877,0,0,0,0
-0.06021765066265911,-0.04288482423170987,-0.0011424672745312253,0,0,0,0
0.10645906533734088,0.0034544938182901287,0.011312870725468775,0,0,0,0
0.10645906533734088,0.0034544938182901287,0.011312870725468775,0,0,0,0
0.08350030533734089,0.00835442376829013,-0.030304499274531226,0,0,0,0
-0.08989427866265912,0.0010479294682901286,0.08186197972546877,0,0,0,0
-0.08989427866265912,0.0010479294682901286,0.08186197972546877,0,0,0,0
-0.15739248466265912,0.02126320976829013,0.07696098972546878,0,0,0,0
0.08540908533734089,0.054461449768290135,-0.010303331974531225,0,0,0,0
0.03933049833734089,0.06496995576829014,-0.14810076027453123,0,0,0,0
0.00015479733734089385,-0.019428807231709873,0.04901599972546878,0,0,0,0
-0.10462005466265911,-0.06713921423170986,0.09459151972546877,0,0,0,0
0.0667506353373409,0.03525511576829013,0.040070821725468775,0,0,0,0
-0.033031924662659105,-0.02581485723170987,0.050904289725468774,0,0,0,0
-0.033031924662659105,-0.02581485723170987,0.050904289725468774,0,0,0,0
-0.033031924662659105,-0.02581485723170987,0.050904289725468774,0,0,0,0
-0.0453694186626591,-0.008182724831709872,0.07129486972546877,0,0,0,0
0.16067001533734088,0.022402881768290132,-0.12986477027453122,0,0,0,0
-0.049803336662659105,-0.014713996231709872,0.057499043725468775,0,0,0,0
-0.049803336662659105,-0.014713996231709872,0.057499043725468775,0,0,0,0
-0.06974466466265912,-0.03974559223170987,0.050682405725468775,0,0,0,0
0.016831318337340896,0.03578998176829013,0.05273220972546878,0,0,0,0
0.011484639337340893,0.06191095176829013,-0.048604710274531226,0,0,0,0
0.09394122533734088,-0.013226738231709872,-0.05494824227453122,0,0,0,0
0.09394122533734088,-0.013226738231709872,-0.05494824227453122,0,0,0,0
0.03574706733734089,-0.03854682423170987,0.040316669725468775,0,0,0,0
-0.03670337966265911,-0.04555559123170987,0.056583682725468785,0,0,0,0
-0.028690035662659104,-0.06654338423170987,0.015673462725468774,0,0,0,0
0.016000191337340895,0.043453705768290135,-0.06092397727453122,0,0,0,0
0.016000191337340895,0.043453705768290135,-0.06092397727453122,0,0,0,0
0.016000191337340895,0.043453705768290135,-0.06092397727453122,0,0,0,0
0.05089132033734089,-0.047369161231709866,0.012282709725468775,0,0,0,0
-0.019716723662659103,-0.06642659423170987,-0.036590970274531225,0,0,0,0
-0.04026602066265911,-0.05492194423170987,-0.04243099827453122,0,0,0,0
-0.04026602066265911,-0.05492194423170987,-0.04243099827453122,0,0,0,0
0.024661080337340897,0.025322656768290132,0.008127228725468776,0,0,0,0
0.024661080337340897,0.025322656768290132,0.008127228725468776,0,0,0,0
0.10757400533734089,0.011325256268290129,0.05000167972546878,0,0,0,0
0.024102417337340892,-0.028097998231709866,-0.10647506027453123,0,0,0,0
0.0012134713373408946,-0.020498134231709868,0.021981099725468776,0,0,0,0
-0.0653766446626591,0.022136455768290132,0.05617048972546878,0,0,0,0
-0.09936207166265912,0.055771541768290134,0.009248869725468772,0,0,0,0
0.050986305337340894,-0.09584981423170987,-0.07586349027453124,0,0,0,0
0.0531679313373409,-0.09931486423170986,0.02851464572546877,0,0,0,0
0.020416562337340894,-0.08339166423170988,0.08288377972546877,0,0,0,0
-0.030779631662659106,-0.005891485231709872,0.07887121272546878,0,0,0,0
0.0037731333373408936,0.04784963576829013,-0.07532940627453123,0,0,0,0
0.07240735533734088,0.0030881733682901285,-0.0038672760745312256,0,0,0,0
0.017956177337340895,-0.00864604423170987,-0.0027512505745312258,0,0,0,0
0.017952553337340894,-0.008653146231709872,-0.002784748274531225,0,0,0,0
-0.09753368466265912,0.034975657768290126,0.04597554672546878,0,0,0,0
-0.11973617466265911,-0.0010499495317098716,0.043536749725468775,0,0,0,0
-0.03687980966265911,-0.04689230623170987,0.02246203972546877,0,0,0,0
0.11738998533734088,0.023179155768290126,-0.050478108274531225,0,0,0,0
0.1067545053373409,0.02783408176829013,-0.10584834327453123,0,0,0,0
-0.10887878466265913,-0.003972996231709871,0.04300435672546878,0,0,0,0
-0.10887878466265913,-0.003972996231709871,0.04300435672546878,0,0,0,0
-0.0932452046626591,0.00958443326829013,0.08553686572546877,0,0,0,0
0.039987389337340896,-0.013095632231709871,-0.038645275274531224,0,0,0,0
0.1257161253373409,-0.009763125631709871,-0.12467561027453124,0,0,0,0
0.1481116453373409,0.026119360768290127,-0.035041650274531225,0,0,0,0
0.06708738033734088,0.017753651768290128,-0.030874069274531225,0,0,0,0
-0.07266052466265911,0.011758328768290128,0.10948507972546878,0,0,0,0
-0.07266052466265911,0.011758328768290128,0.10948507972546878,0,0,0,0
0.1425837653373409,-0.0009636148317098718,-0.018045492274531227,0,0,0,0
0.1425837653373409,-0.0009636148317098718,-0.018045492274531227,0,0,0,0
-0.08058164866265911,-0.05462345423170987,0.07004101972546876,0,0,0,0
-0.08058164866265911,-0.05462345423170987,0.07004101972546876,0,0,0,0
-0.08058164866265911,-0.05462345423170987,0.07004101972546876,0,0,0,0
-0.08058164866265911,-0.05462345423170987,0.07004101972546876,0,0,0,0
0.026076237337340897,0.0024682593482901285,0.07072847372546877,0,0,0,0
0.2052171853373409,0.02023275676829013,-0.05979007027453122,0,0,0,0
0.2052171853373409,0.02023275676829013,-0.05979007027453122,0,0,0,0
0.21624766533734088,0.019448620768290133,-0.21059598027453125,0,0,0,0
0.04929029133734089,0.008107112468290129,0.03701125972546878,0,0,0,0
-0.12277382466265911,-0.030984484231709873,0.012952975725468774,0,0,0,0
-0.2303594446626591,-0.02371122223170987,0.038166682725468776,0,0,0,0
-0.1905829746626591,0.02404950876829013,0.10897864972546877,0,0,0,0
0.09756852533734088,0.01758884676829013,-0.15852816027453123,0,0,0,0
0.2160615153373409,-0.01797869723170987,-0.20102978027453122,0,0,0,0
0.2120248953373409,-0.02374532723170987,0.004707364725468775,0,0,0,0
0.2120248953373409,-0.02374532723170987,0.004707364725468775,0,0,0,0
-0.1279683946626591,-0.01778454723170987,0.11213967972546877,0,0,0,0
-0.17168005466265912,0.03336044576829013,0.11140090972546877,0,0,0,0
-0.17168005466265912,0.03336044576829013,0.11140090972546877,0,0,0,0
0.1960539953373409,-0.060715024231709866,-0.12166597027453122,0,0,0,0
0.1960539953373409,-0.060715024231709866,-0.12166597027453122,0,0,0,0
-4.9384262659105376e-05,0.030990180768290125,0.04169912772546878,0,0,0,0
-4.9384262659105376e-05,0.030990180768290125,0.04169912772546878,0,0,0,0
-0.0804903846626591,-0.052899467231709865,-0.03803738027453123,0,0,0,0
-0.1504649046626591,0.07878612576829014,0.09351465972546877,0,0,0,0
0.04995538533734089,0.04243263576829013,0.04212220772546878,0,0,0,0
-0.08469646466265911,0.007064032968290128,0.03745053272546878,0,0,0,0
-0.15738437466265912,0.06999821576829013,0.09413698972546877,0,0,0,0
-0.15738437466265912,0.06999821576829013,0.09413698972546877,0,0,0,0
-0.06888902966265911,0.05786433276829012,0.07767071572546877,0,0,0,0
-0.08630979866265912,0.006389202768290129,0.007543466725468775,0,0,0,0
-0.08973139066265912,0.0018836201082901285,0.10447117972546877,0,0,0,0
-0.08973139066265912,0.0018836201082901285,0.10447117972546877,0,0,0,0
-0.028256686662659104,0.011209754768290128,0.012299839725468772,0,0,0,0
0.0479877653373409,0.027529168768290133,-0.08274727627453124,0,0,0,0
0.0479877653373409,0.027529168768290133,-0.08274727627453124,0,0,0,0
-0.07179497066265911,0.013972439368290129,0.0006730007254687745,0,0,0,0
-0.06829641466265911,-0.005314913231709871,0.11105006972546877,0,0,0,0
-0.0377049286626591,0.10187576576829013,0.05374231972546877,0,0,0,0
0.1447813253373409,0.06998506576829013,-0.13091416027453123,0,0,0,0
0.2658867953373409,0.04777466576829013,-0.24780293027453124,0,0,0,0
0.2658867953373409,0.04777466576829013,-0.24780293027453124,0,0,0,0
0.1381717853373409,0.10394073576829013,-0.16791178027453124,0,0,0,0
-0.20997165466265913,-0.15531518423170987,0.17980803972546877,0,0,0,0
-0.1096668046626591,-0.1640447942317099,0.15326336972546878,0,0,0,0
0.025654332337340897,-0.07824860423170986,0.08964213572546878,0,0,0,0
0.1941089753373409,0.004237460568290129,0.02635659372546877,0,0,0,0
0.1933520453373409,-0.00789794423170987,-0.2606345002745312,0,0,0,0
-0.2795569746626591,-0.04886822423170987,0.08172887972546877,0,0,0,0
-0.26980369466265913,-0.10432631423170988,0.11139091972546876,0,0,0,0
-0.26980369466265913,-0.10432631423170988,0.11139091972546876,0,0,0,0
-0.14426859466265912,-0.12331504423170987,0.11238301972546877,0,0,0,0
0.0470078653373409,0.09278916576829013,-0.12878079027453124,0,0,0,0
0.0470078653373409,0.09278916576829013,-0.12878079027453124,0,0,0,0
0.3472154753373409,0.04835097876829013,0.0013647717254687752,0,0,0,0
0.019103925337340896,-0.06032587423170986,-0.31419962027453124,0,0,0,0
-0.1042301946626591,-0.15692431423170988,-0.09011349027453122,0,0,0,0
-0.1042301946626591,-0.15692431423170988,-0.09011349027453122,0,0,0,0
-0.3892136446626591,-0.1784954642317099,0.17546426972546877,0,0,0,0
-0.13663233466265912,-0.08230497823170987,0.20932221972546874,0,0,0,0
-0.13663233466265912,-0.08230497823170987,0.20932221972546874,0,0,0,0
0.20620299533734088,-0.05882344823170987,-0.10023436027453123,0,0,0,0
0.2195163853373409,-0.04179612423170987,-0.025594194274531225,0,0,0,0
-0.16415842466265912,-0.0021387676317098717,0.03830317672546878,0,0,0,0
-0.3679680146626591,-0.04218012623170987,0.06551996972546878,0,0,0,0
-0.3916183346626591,-0.08316610423170988,0.19701343972546875,0,0,0,0
-0.3066939146626591,-0.08313903723170987,0.18440979972546878,0,0,0,0
-0.053062899662659105,-0.06938865423170987,0.09818463972546877,0,0,0,0
-0.053062899662659105,-0.06938865423170987,0.09818463972546877,0,0,0,0
0.4551097253373409,-0.08729346423170987,-0.23550032027453122,0,0,0,0
0.33609048533734087,-0.08430050423170987,-0.37888575027453125,0,0,0,0
0.2202057053373409,-0.04887769723170987,-0.07532993027453123,0,0,0,0
0.2202057053373409,-0.04887769723170987,-0.07532993027453123,0,0,0,0
0.06109687533734089,-0.014902418231709869,0.056036979725468776,0,0,0,0
0.2679022953373409,-0.025241934231709874,-0.4826351502745312,0,0,0,0
0.2679022953373409,-0.025241934231709874,-0.4826351502745312,0,0,0,0
0.2682230253373409,-0.024008594231709875,-0.4802562102745312,0,0,0,0
-0.2253999046626591,-0.053758507231709864,0.13281503972546876,0,0,0,0
-0.03747156466265911,-0.11564865423170986,0.13478002972546876,0,0,0,0
0.0438730403373409,-0.02626207423170987,0.07214896972546878,0,0,0,0
0.0438730403373409,-0.02626207423170987,0.07214896972546878,0,0,0,0
0.08557712533734088,0.016426320768290127,-0.14027102027453123,0,0,0,0
0.0939118553373409,-0.01309632923170987,-0.018913801274531225,0,0,0,0
-0.11299818466265912,-0.05128616023170987,0.07762851572546878,0,0,0,0
0.011870114337340896,-0.10114002423170985,0.10036015972546877,0,0,0,0
0.011870114337340896,-0.10114002423170985,0.10036015972546877,0,0,0,0
0.11554290533734088,0.06988891976829013,-0.13695801027453125,0,0,0,0
0.11554290533734088,0.06988891976829013,-0.13695801027453125,0,0,0,0
0.0923209353373409,0.03485313976829013,0.047868923725468776,0,0,0,0
0.0923209353373409,0.03485313976829013,0.047868923725468776,0,0,0,0
0.15234042533734088,-0.051949649231709874,-0.015056724874531226,0,0,0,0
0.15234042533734088,-0.051949649231709874,-0.015056724874531226,0,0,0,0
0.12087032533734088,-0.01028466423170987,-0.09068724627453123,0,0,0,0
0.12087032533734088,-0.01028466423170987,-0.09068724627453123,0,0,0,0
-0.10050199766265912,-0.017191961231709872,-0.004109735874531225,0,0,0,0
-0.10050199766265912,-0.017191961231709872,-0.004109735874531225,0,0,0,0
-0.1259438346626591,-0.005023207831709871,0.10440639972546878,0,0,0,0
0.003392712337340894,-0.05163795423170987,0.03597770772546878,0,0,0,0
0.003392712337340894,-0.05163795423170987,0.03597770772546878,0,0,0,0
0.1462298553373409,-0.06840593423170986,-0.06013138027453122,0,0,0,0
0.2213796753373409,-0.006041153831709872,-0.04529672427453122,0,0,0,0
0.13778897533734089,0.06487467976829013,-0.05306256527453122,0,0,0,0
0.13778897533734089,0.06487467976829013,-0.05306256527453122,0,0,0,0
-0.0038218337426591054,0.06726987976829013,-0.11261951027453122,0,0,0,0
-0.17985351466265911,-0.0008633698317098712,0.11493965972546877,0,0,0,0
-0.23304713466265908,-0.031261810231709874,0.09359654972546877,0,0,0,0
-0.23304713466265908,-0.031261810231709874,0.09359654972546877,0,0,0,0
0.12751428533734088,-0.06290031023170987,-0.06218632027453122,0,0,0,0
0.05616895533734089,0.007857960768290128,0.017133829725468775,0,0,0,0
-0.07665031466265912,-0.012465104231709871,0.04455001972546878,0,0,0,0
0.05612613533734089,-0.016048577231709875,-0.03622606527453122,0,0,0,0
0.05612613533734089,-0.016048577231709875,-0.03622606527453122,0,0,0,0
0.11791288533734087,-0.032315298231709866,-0.07201727027453123,0,0,0,0
-0.1599384146626591,0.014555703768290129,0.10874220972546876,0,0,0,0
-0.19078415466265913,0.04031152176829013,0.12882912972546878,0,0,0,0
-0.0591982676626591,0.03364195276829013,0.08709835972546877,0,0,0,0
-0.0591982676626591,0.03364195276829013,0.08709835972546877,0,0,0,0
0.16652080533734087,0.007725480768290128,-0.13183491027453123,0,0,0,0
0.16652080533734087,0.007725480768290128,-0.13183491027453123,0,0,0,0
-0.06479500166265911,-0.043450611231709874,0.09856842972546877,0,0,0,0
-0.06479500166265911,-0.043450611231709874,0.09856842972546877,0,0,0,0
-0.1450083546626591,0.0005128894682901286,0.11624325972546877,0,0,0,0
-0.12961929466265912,0.016548398768290125,0.08652616572546877,0,0,0,0
-0.013043387662659105,0.0021939133182901287,-0.03779182027453122,0,0,0,0
0.1079829353373409,-0.009366818831709872,-0.04387411627453122,0,0,0,0
0.06914254833734089,-0.010161241231709871,-0.030714781274531228,0,0,0,0
0.036208741337340894,-0.027979019231709874,-0.023493762274531226,0,0,0,0
-0.013530238262659106,-0.024271189231709872,0.03972016372546878,0,0,0,0
-0.013530238262659106,-0.024271189231709872,0.03972016372546878,0,0,0,0
-0.027128680662659103,-0.027005001231709874,0.011004243725468776,0,0,0,0
0.07414666533734089,0.00022270126829012846,-0.022256036274531224,0,0,0,0
0.07414666533734089,0.00022270126829012846,-0.022256036274531224,0,0,0,0
0.07633125033734088,-0.04490963723170987,-0.08450763027453123,0,0,0,0
0.07127620533734089,-0.08543705423170987,0.05981134572546878,0,0,0,0
-0.08541868466265912,-0.0005483414317098713,0.02062926772546877,0,0,0,0
-0.08541868466265912,-0.0005483414317098713,0.02062926772546877,0,0,0,0
-0.08541868466265912,-0.0005483414317098713,0.02062926772546877,0,0,0,0
-0.021682627662659104,0.07069672576829013,0.0011482637254687745,0,0,0,0
-0.021682627662659104,0.07069672576829013,0.0011482637254687745,0,0,0,0
0.03944150533734089,0.007703763768290128,-0.012991555074531225,0,0,0,0
0.10474273533734088,-0.060514704231709876,-0.029539187274531226,0,0,0,0
-0.007088645162659106,-0.025270491231709873,-0.014063044274531224,0,0,0,0
-0.007088645162659106,-0.025270491231709873,-0.014063044274531224,0,0,0,0
-0.07218845466265911,0.026971620768290128,0.06410262472546877,0,0,0,0
-0.07514160466265911,0.015748799768290127,0.052313339725468776,0,0,0,0
0.1210070753373409,-0.029814067231709873,-0.016578872274531226,0,0,0,0
0.1490786753373409,-0.02007920423170987,-0.08871648027453123,0,0,0,0
0.08846332533734089,0.02719298076829013,-0.06679527027453122,0,0,0,0
-0.025734026662659105,0.07217462576829013,-0.0045353248745312255,0,0,0,0
-0.007075484362659106,-0.04578481223170987,0.011595426725468774,0,0,0,0
0.11645890533734089,-0.051824324231709865,0.009500448725468773,0,0,0,0
0.13572618533734088,-0.04709700923170987,-0.06235898027453122,0,0,0,0
0.13572618533734088,-0.04709700923170987,-0.06235898027453122,0,0,0,0
-0.09220627166265911,0.05105500276829013,0.06984665972546877,0,0,0,0
-0.1383407446626591,0.019781594768290132,-0.05240884527453122,0,0,0,0
-0.1383407446626591,0.019781594768290132,-0.05240884527453122,0,0,0,0
0.03751975733734089,0.00896212176829013,0.030143134725468774,0,0,0,0
0.08893548533734089,0.01893327776829013,-0.017757041774531225,0,0,0,0
0.07314759933734089,0.054736735768290135,-0.04709249327453122,0,0,0,0
-0.009788973962659105,0.08074854076829013,0.026707885725468773,0,0,0,0
-0.04351862266265911,0.02529196776829013,0.04917685972546878,0,0,0,0
0.018746296337340897,-0.0034353520317098717,0.022450647725468773,0,0,0,0
0.06164428533734089,-0.012662440231709872,-0.009794850674531225,0,0,0,0
0.0912688413373409,-0.03639575423170987,-0.06137780727453122,0,0,0,0
0.011903683337340897,-0.028384854231709868,0.048221979725468773,0,0,0,0
-0.12993019466265912,0.06426677576829012,-0.04603171027453122,0,0,0,0
-0.016039641662659105,0.04890402576829013,0.04619935972546878,0,0,0,0
-0.016039641662659105,0.04890402576829013,0.04619935972546878,0,0,0,0
0.0464808653373409,0.015126167768290129,0.07028615972546877,0,0,0,0
0.0832124853373409,0.01318418126829013,-0.023847766274531227,0,0,0,0
-0.05266655266265911,0.07428297576829014,0.07584385972546877,0,0,0,0
-0.05266655266265911,0.07428297576829014,0.07584385972546877,0,0,0,0
-0.1479329946626591,0.11517998576829012,0.04813774672546877,0,0,0,0
0.034174553337340895,0.0008703236682901286,-0.07079603027453123,0,0,0,0
0.034174553337340895,0.0008703236682901286,-0.07079603027453123,0,0,0,0
-0.0740568946626591,-0.04254121423170987,0.025798139725468777,0,0,0,0
