acc_x,acc_y,acc_z,gyro_x,gyro_y,gyro_z,label
-0.1525170146626591,0.06260650176829013,-0.03592819027453122,0,0,0,0
-0.08043649966265912,-0.03495189823170987,-0.11197793027453123,0,0,0,0
0.021819130337340894,-0.02310793423170987,0.04133408972546878,0,0,0,0
0.021819130337340894,-0.02310793423170987,0.04133408972546878,0,0,0,0
0.025909440337340897,-0.029527708231709866,0.012514061725468772,0,0,0,0
0.022910992337340896,-0.07396750423170988,-0.07606783627453123,0,0,0,0
-0.015050109062659106,0.10936781576829015,0.03176417772546878,0,0,0,0
0.002888886337340895,0.05213189776829013,0.008976302725468774,0,0,0,0
0.002888886337340895,0.05213189776829013,0.008976302725468774,0,0,0,0
-0.049929221662659104,-0.034526424231709874,0.023075614725468773,0,0,0,0
-0.049929221662659104,-0.034526424231709874,0.023075614725468773,0,0,0,0
-0.09807928466265911,0.038546967768290134,0.06336536972546877,0,0,0,0
0.021390455337340894,-0.010975014231709872,0.06705398972546876,0,0,0,0
-0.050920374662659106,-0.07073548423170987,-0.06907117027453123,0,0,0,0
0.0308262983373409,0.0050012235682901285,0.09664050972546877,0,0,0,0
0.0308262983373409,0.0050012235682901285,0.09664050972546877,0,0,0,0
0.09866773533734088,0.02711015376829013,0.07925056672546878,0,0,0,0
0.06339217833734088,-0.05734797123170987,-0.17257579027453124,0,0,0,0
-0.07782429066265911,0.06224369576829013,0.07551710472546877,0,0,0,0
-0.19847772466265912,0.08548749176829014,0.08047945972546877,0,0,0,0
-0.19847772466265912,0.08548749176829014,0.08047945972546877,0,0,0,0
-0.015169032262659105,-0.01282096423170987,0.03432187272546878,0,0,0,0
0.11525613533734089,-0.016441783231709868,-0.009669302474531224,0,0,0,0
0.2332342253373409,-0.004775225631709872,-0.030911179274531228,0,0,0,0
0.2332342253373409,-0.004775225631709872,-0.030911179274531228,0,0,0,0
-0.056844124662659104,0.053725570768290126,-0.06812032627453123,0,0,0,0
-0.1417672946626591,0.03707467376829013,-0.004700048274531226,0,0,0,0
-0.08143394766265911,-0.03608987423170987,0.07311606972546877,0,0,0,0
0.0007093590373408948,-0.060556704231709876,0.05776201972546877,0,0,0,0
0.032323948337340896,0.008680762768290128,0.020471976725468775,0,0,0,0
0.0337447323373409,0.03711754576829013,-0.021451567274531225,0,0,0,0
-0.0048655349626591056,0.056000555768290126,0.09051610972546878,0,0,0,0
0.06680938533734089,-0.023929104231709873,0.07472309272546876,0,0,0,0
0.22698346533734087,-0.051644879231709864,0.07687132972546877,0,0,0,0
0.21978389533734088,-0.03177747723170987,0.009866763725468772,0,0,0,0
0.21978389533734088,-0.03177747723170987,0.009866763725468772,0,0,0,0
0.09549638533734088,0.023646129768290128,-0.12169017027453123,0,0,0,0
0.04851056533734089,0.10733014576829013,-0.017427368274531226,0,0,0,0
-0.0835429986626591,-0.03842100423170987,0.08782479972546878,0,0,0,0
-0.0835429986626591,-0.03842100423170987,0.08782479972546878,0,0,0,0
0.05857383533734089,-0.11151277423170988,0.10716499972546877,0,0,0,0
0.1305808253373409,0.0027775292182901285,0.07765581472546877,0,0,0,0
-0.10467003466265912,0.06391536576829013,0.03982456172546878,0,0,0,0
-0.10467003466265912,0.06391536576829013,0.03982456172546878,0,0,0,0
0.06456548533734088,0.01778398976829013,-0.029088466274531228,0,0,0,0
-0.1016168446626591,-0.057488114231709866,-0.04754223027453122,0,0,0,0
-0.1004673796626591,-0.02488368423170987,0.07318544972546877,0,0,0,0
-0.1004673796626591,-0.02488368423170987,0.07318544972546877,0,0,0,0
-0.018248351662659108,0.010494270768290128,-0.14487652027453124,0,0,0,0
-0.042064174662659104,0.010494270768290128,-0.14487652027453124,0,0,0,0
-0.16366432466265912,0.03059451576829013,0.11489628972546878,0,0,0,0
-0.1909172346626591,0.03196489876829013,0.11823600972546877,0,0,0,0
-0.1909172346626591,0.03196489876829013,0.11823600972546877,0,0,0,0
-0.1837003546626591,-0.0025355409317098718,0.10902020972546876,0,0,0,0
-0.10354316966265911,-0.03800325023170987,-0.07662471027453123,0,0,0,0
0.0503071953373409,0.0021463920282901285,-0.05742918027453122,0,0,0,0
0.0503071953373409,0.0021463920282901285,-0.05742918027453122,0,0,0,0
0.07878381533734088,0.04878495576829013,-0.0023924157745312258,0,0,0,0
-0.1255190746626591,0.06806979576829013,-0.012119732874531226,0,0,0,0
-0.1255190746626591,0.06806979576829013,-0.012119732874531226,0,0,0,0
-0.07409437466265911,0.030035421768290126,0.11290259972546877,0,0,0,0
-0.14357441466265913,0.019979745768290126,0.07756246972546878,0,0,0,0
-0.03810957266265911,0.08277820976829013,0.04607017472546878,0,0,0,0
-0.09989393466265911,0.02007961176829013,-0.12772437027453123,0,0,0,0
0.010452477337340893,-0.011998074231709873,0.07880889572546877,0,0,0,0
-0.0032193976626591057,-0.009202539231709871,0.07309472972546877,0,0,0,0
0.0341950573373409,0.01945163076829013,0.040385471725468775,0,0,0,0
-0.005824359062659106,-0.023073768231709875,-0.024040474274531227,0,0,0,0
0.0341950573373409,0.01945163076829013,0.040385471725468775,0,0,0,0
-0.1838428346626591,0.10485299576829013,-0.031249206274531226,0,0,0,0
-0.06304834466265911,0.06976504976829014,0.03919988672546878,0,0,0,0
0.042193525337340894,0.00880713576829013,0.012243896725468773,0,0,0,0
0.038865487337340895,-0.02641983623170987,-0.09585391027453123,0,0,0,0
0.049071235337340896,-0.007015259231709871,-0.11937034027453122,0,0,0,0
0.049071235337340896,-0.007015259231709871,-0.11937034027453122,0,0,0,0
-0.0590148746626591,-0.011978521231709872,-0.04465726427453122,0,0,0,0
-0.0590186916626591,-0.012094169231709872,-0.04476797027453122,0,0,0,0
0.0016884011373408947,-0.059461334231709864,0.018627635725468775,0,0,0,0
0.0016884011373408947,-0.059461334231709864,0.018627635725468775,0,0,0,0
0.0017275971373408939,-0.05850184423170987,-0.07295397027453124,0,0,0,0
0.030874840337340892,-0.007256900231709872,-0.12879370027453121,0,0,0,0
-0.062134631662659104,0.06954314176829013,0.04306386972546878,0,0,0,0
-0.062134631662659104,0.06954314176829013,0.04306386972546878,0,0,0,0
-0.11779602466265911,-0.07703011023170987,-0.042981906274531224,0,0,0,0
-0.11779602466265911,-0.07703011023170987,-0.042981906274531224,0,0,0,0
-0.0495420296626591,-0.08702207423170986,0.052820352725468776,0,0,0,0
-0.045569689662659105,-0.03898360723170987,0.03505018772546877,0,0,0,0
-0.0026929694626591054,-0.026152387231709873,-0.004773403774531225,0,0,0,0
0.045940129337340894,-0.06630401423170987,-0.11597554027453122,0,0,0,0
0.008499924337340894,-0.06433520423170987,-0.08591170427453124,0,0,0,0
-0.16496160466265913,-0.02171589723170987,0.03965885172546878,0,0,0,0
-0.07767446866265912,-0.08205197423170987,0.04717697372546878,0,0,0,0
-0.004468901762659105,-0.07757833423170987,-0.059294860274531215,0,0,0,0
0.06419126233734089,0.04259369976829013,-0.037873535274531224,0,0,0,0
0.06684142533734089,0.011320258768290127,-0.11748893027453124,0,0,0,0
0.06684142533734089,0.011320258768290127,-0.11748893027453124,0,0,0,0
-0.1265209046626591,0.0014576797682901287,0.054072229725468775,0,0,0,0
-0.07111404466265911,-0.04330845423170987,0.07805673372546877,0,0,0,0
0.08434831533734088,0.02074763176829013,-0.14873776027453123,0,0,0,0
0.0771987123373409,0.029809123768290133,-0.17499178027453122,0,0,0,0
-0.09781187466265912,0.009691459768290129,-0.13401296027453125,0,0,0,0
-0.26470677466265913,-0.01032561023170987,0.016698245725468776,0,0,0,0
-0.0837774116626591,-0.08482516923170987,0.12060700972546878,0,0,0,0
0.0519122283373409,-0.019751903231709868,0.07821666472546876,0,0,0,0
0.0519122283373409,-0.019751903231709868,0.07821666472546876,0,0,0,0
0.13761798533734088,-0.03077607123170987,-0.30424918027453124,0,0,0,0
-0.23767221466265911,0.06612181576829014,0.10997636972546877,0,0,0,0
-0.23767221466265911,0.06612181576829014,0.10997636972546877,0,0,0,0
-0.23767221466265911,0.06612181576829014,0.10997636972546877,0,0,0,0
-0.23767221466265911,0.06612181576829014,0.10997636972546877,0,0,0,0
-0.0006624060626591053,0.02184513076829013,-0.26514045027453126,0,0,0,0
-0.0006624060626591053,0.02184513076829013,-0.26514045027453126,0,0,0,0
-0.0006624060626591053,0.02184513076829013,-0.26514045027453126,0,0,0,0
-0.1526471946626591,-0.06844152423170988,0.08468778572546877,0,0,0,0
0.0355471773373409,-0.14086478423170987,0.06979913972546878,0,0,0,0
0.1778061053373409,-0.10949408423170987,0.058425275725468774,0,0,0,0
0.12133733533734087,-0.0026663567317098714,-0.08892953027453124,0,0,0,0
0.07275067933734089,0.11504614576829014,-0.030580748274531225,0,0,0,0
0.07275067933734089,0.11504614576829014,-0.030580748274531225,0,0,0,0
-0.07115000066265911,0.06381666576829013,-0.11047268027453122,0,0,0,0
-0.21679423466265912,-0.0006416316317098712,-0.13264938027453121,0,0,0,0
-0.21679423466265912,-0.0006416316317098712,-0.13264938027453121,0,0,0,0
-0.0026308852626591057,-0.04394631923170987,0.07630194272546878,0,0,0,0
0.013932244337340895,0.027040887768290132,0.03852750772546878,0,0,0,0
0.0819841553373409,-0.007214842231709871,-0.10736220027453122,0,0,0,0
0.10134555533734088,-0.03829366823170987,0.027179543725468772,0,0,0,0
-0.1158736046626591,0.055552929768290134,0.05212412972546878,0,0,0,0
0.12439157533734088,-0.02220517223170987,0.012296442725468773,0,0,0,0
0.12439157533734088,-0.02220517223170987,0.012296442725468773,0,0,0,0
-0.04126566266265911,-0.07917678923170987,-0.030553742274531226,0,0,0,0
0.07312499533734089,-0.06944447423170987,0.021710343725468775,0,0,0,0
0.07312499533734089,-0.06944447423170987,0.021710343725468775,0,0,0,0
0.18200885533734087,-0.09453300823170988,0.013753305725468772,0,0,0,0
0.18200885533734087,-0.09453300823170988,0.013753305725468772,0,0,0,0
0.1369080753373409,0.054730765768290134,-0.027532525274531226,0,0,0,0
0.004185788337340895,0.08790308876829013,-0.015201504274531225,0,0,0,0
-0.19472740466265911,0.03485825376829013,0.034776107725468776,0,0,0,0
-0.05591543466265911,-0.015108111231709872,0.07122881972546877,0,0,0,0
-0.05591543466265911,-0.015108111231709872,0.07122881972546877,0,0,0,0
0.1877473953373409,-0.03301023823170987,-0.04972278627453122,0,0,0,0
0.16863538533734088,-0.02014695223170987,-0.13572963027453122,0,0,0,0
0.027945915337340893,-0.03166650423170987,0.03674021472546878,0,0,0,0
0.027945915337340893,-0.03166650423170987,0.03674021472546878,0,0,0,0
-0.0534344516626591,0.05639031576829013,0.07002973372546877,0,0,0,0
-0.0534344516626591,0.05639031576829013,0.07002973372546877,0,0,0,0
0.0661302753373409,0.07503586576829013,-0.07697817027453123,0,0,0,0
0.13544208533734087,0.0021284763582901287,-0.12936466027453122,0,0,0,0
-0.08591001766265911,-0.05998986423170987,0.03561845972546878,0,0,0,0
-0.08591001766265911,-0.05998986423170987,0.03561845972546878,0,0,0,0
-0.15105236466265912,-0.02276257223170987,-0.055524112274531225,0,0,0,0
-0.15105236466265912,-0.02276257223170987,-0.055524112274531225,0,0,0,0
-0.06320617966265911,0.010335222368290127,-0.04585752027453122,0,0,0,0
-0.06320617966265911,0.010335222368290127,-0.04585752027453122,0,0,0,0
-0.0029270964626591056,-0.028399026231709874,-0.08301259427453123,0,0,0,0
-0.027642806662659104,-0.050948017231709865,0.032307846725468777,0,0,0,0
-0.027642806662659104,-0.050948017231709865,0.032307846725468777,0,0,0,0
-0.1232191846626591,0.07402978576829013,-0.006903757174531225,0,0,0,0
-0.08536489766265912,0.029639527768290125,-0.09565849427453123,0,0,0,0
-0.07480228466265912,-0.019631781231709867,-0.020966060274531226,0,0,0,0
-0.07480228466265912,-0.019631781231709867,-0.020966060274531226,0,0,0,0
-0.0384013016626591,-0.029727849231709874,0.016089002725468773,0,0,0,0
-0.052001174662659105,0.018490997768290128,-0.13437980027453122,0,0,0,0
-0.048036749662659105,0.004083292668290129,-0.011442215774531226,0,0,0,0
-0.053445322662659105,-0.023481032231709872,0.07789523472546876,0,0,0,0
-0.08736046166265912,-0.02280377723170987,0.10809081972546877,0,0,0,0
-0.07745989166265911,-0.0014871712317098716,0.09126529572546878,0,0,0,0
-0.07745989166265911,-0.0014871712317098716,0.09126529572546878,0,0,0,0
-0.013933070662659103,0.008820610168290128,0.07414775372546877,0,0,0,0
