acc_x,acc_y,acc_z,gyro_x,gyro_y,gyro_z,label
-0.017494280662659106,-0.00787485823170987,-0.004347522574531226,0,0,0,0
-0.017494280662659106,-0.00787485823170987,-0.004347522574531226,0,0,0,0
-0.017494280662659106,-0.00787485823170987,-0.004347522574531226,0,0,0,0
-0.017494280662659106,-0.00787485823170987,-0.004347522574531226,0,0,0,0
-0.0603149246626591,-0.010347822231709871,-0.060421176274531224,0,0,0,0
-0.0603149246626591,-0.010347822231709871,-0.060421176274531224,0,0,0,0
-0.0603149246626591,-0.010347822231709871,-0.060421176274531224,0,0,0,0
0.08669597533734089,-0.04341711623170987,0.016094676725468774,0,0,0,0
0.08669597533734089,-0.04341711623170987,0.016094676725468774,0,0,0,0
0.08669597533734089,-0.04341711623170987,0.016094676725468774,0,0,0,0
0.08669597533734089,-0.04341711623170987,0.016094676725468774,0,0,0,0
0.08669597533734089,-0.04341711623170987,0.016094676725468774,0,0,0,0
0.08669597533734089,-0.04341711623170987,0.016094676725468774,0,0,0,0
0.06038877233734089,-0.03441776423170987,0.016181008725468776,0,0,0,0
0.06038877233734089,-0.03441776423170987,0.016181008725468776,0,0,0,0
0.06038877233734089,-0.03441776423170987,0.016181008725468776,0,0,0,0
0.040192335337340894,-0.08798764923170986,-0.009015698774531225,0,0,0,0
-0.007007964262659106,-0.05992428023170987,0.0025347517254687745,0,0,0,0
-0.03917005866265911,-0.006285075231709871,0.017900435725468775,0,0,0,0
-0.051546748662659105,0.03505266576829013,0.017294876725468776,0,0,0,0
-0.016139014662659105,0.010725829768290129,-0.023014064274531225,0,0,0,0
0.0291362923373409,-0.04025099823170987,-0.017900653274531227,0,0,0,0
0.0291362923373409,-0.04025099823170987,-0.017900653274531227,0,0,0,0
-0.07830189066265911,0.03829892276829013,0.012735704725468776,0,0,0,0
-0.027937396662659104,0.0013297860682901287,0.011210696725468774,0,0,0,0
-0.027937396662659104,0.0013297860682901287,0.011210696725468774,0,0,0,0
-0.027937396662659104,0.0013297860682901287,0.011210696725468774,0,0,0,0
-0.006178839862659106,-0.00024909623170987164,0.020428018725468775,0,0,0,0
-0.0539361796626591,0.016133503768290126,0.04305749372546877,0,0,0,0
-0.07500770866265911,0.021237957768290128,0.010989157725468775,0,0,0,0
0.008894650337340895,-0.006571052231709873,0.009036628725468773,0,0,0,0
-0.0012152510626591059,0.02582096176829013,-0.0006080462745312251,0,0,0,0
-0.0371449306626591,-0.014823096231709873,0.00013306572546877438,0,0,0,0
0.02866031333734089,0.01923851376829013,0.011590568725468774,0,0,0,0
-0.017869170662659105,0.016700168768290127,0.036944262725468774,0,0,0,0
0.047025410337340895,0.02818792576829013,0.006911365725468775,0,0,0,0
0.047025410337340895,0.02818792576829013,0.006911365725468775,0,0,0,0
-0.07335012466265911,-0.046725164231709866,0.018210224725468776,0,0,0,0
-0.026171954662659105,-0.052574270231709866,0.009960989725468772,0,0,0,0
0.056672495337340895,0.01888093276829013,0.013521723725468775,0,0,0,0
0.0350091153373409,0.008881983768290129,0.016101329725468776,0,0,0,0
-0.07291639466265912,0.0009054814682901285,0.029105834725468776,0,0,0,0
-0.037028201662659105,0.02298696576829013,0.0032219217254687753,0,0,0,0
-0.006856043962659106,-0.05412999923170987,-0.006650252674531225,0,0,0,0
-0.0539774746626591,-0.058289110231709865,0.008214370725468774,0,0,0,0
-0.060061054662659104,-0.02572124423170987,0.03743737172546878,0,0,0,0
0.006423394337340895,0.02041720176829013,0.032895056725468774,0,0,0,0
0.010674111337340895,-0.013741469231709871,0.035050312725468775,0,0,0,0
0.0036281743373408936,-0.02054872323170987,0.022300652725468776,0,0,0,0
0.017428795337340895,-0.0015696476317098714,0.015990857725468776,0,0,0,0
0.0011580628373408942,-0.033826517231709874,0.018192927725468776,0,0,0,0
-0.0035794097326591057,-0.007156625231709872,0.0006549877254687737,0,0,0,0
0.014171235337340896,-0.010624797231709872,0.018309537725468776,0,0,0,0
-0.022770960662659104,0.012140605768290128,0.022162359725468775,0,0,0,0
-0.022770960662659104,0.012140605768290128,0.022162359725468775,0,0,0,0
-0.017565901662659106,-0.03886959423170987,0.016937259725468775,0,0,0,0
-0.017654021662659104,-0.03254112223170987,0.017779079725468775,0,0,0,0
0.014211957337340896,0.03314344376829013,0.007484535725468777,0,0,0,0
-0.044157298662659106,-0.014024902231709874,0.014583269725468775,0,0,0,0
-0.044157298662659106,-0.014024902231709874,0.014583269725468775,0,0,0,0
-0.08412702866265911,-0.04214458723170987,0.007803801725468775,0,0,0,0
-0.016830237662659106,0.007174537068290129,0.028509679725468775,0,0,0,0
0.03720990833734089,0.020360416768290125,0.020536569725468776,0,0,0,0
0.03720990833734089,0.020360416768290125,0.020536569725468776,0,0,0,0
-0.021254714662659102,0.02005199276829013,0.042632965725468784,0,0,0,0
-0.046959194662659104,0.02122863576829013,0.03887517972546878,0,0,0,0
-0.046959194662659104,0.02122863576829013,0.03887517972546878,0,0,0,0
-0.0005222159626591056,-0.0033791522317098716,-0.003952915974531226,0,0,0,0
0.058521859337340894,-0.029558017231709866,-0.008234830244531225,0,0,0,0
-0.013589556662659107,-0.04164628423170987,0.012662820725468774,0,0,0,0
-0.024287493662659105,0.025706921768290127,0.03163979472546878,0,0,0,0
0.008209721337340894,0.01987821576829013,0.034338645725468776,0,0,0,0
0.0619998153373409,-0.018560266231709872,0.024901656725468773,0,0,0,0
0.04875632933734089,-0.027911274231709866,0.04864313472546878,0,0,0,0
0.0011740845373408946,-0.01942401323170987,0.027015582725468775,0,0,0,0
-0.03132379866265911,0.0032408510682901286,0.028962211725468773,0,0,0,0
-0.03132379866265911,0.0032408510682901286,0.028962211725468773,0,0,0,0
-0.0025396186626591055,-0.0038273032317098716,-0.009436018774531225,0,0,0,0
0.024282757337340893,-0.03740037023170987,-0.03202001627453122,0,0,0,0
0.005972878337340895,-0.03111895423170987,-0.023988338274531226,0,0,0,0
-0.0057799178626591055,-0.05223314123170987,-0.014486928274531225,0,0,0,0
-0.0034316855626591054,-0.0046786022317098705,0.034320537725468774,0,0,0,0
-0.0034316855626591054,-0.0046786022317098705,0.034320537725468774,0,0,0,0
-0.0031573134626591056,0.02639116276829013,0.06051693372546877,0,0,0,0
0.009945885337340893,0.03243742576829013,0.03997922372546878,0,0,0,0
0.03943740533734089,0.023615852768290126,0.04485963472546877,0,0,0,0
0.04172975233734089,-0.00011208463170987119,0.025018624725468775,0,0,0,0
0.023864285337340897,-0.014654870231709869,0.04280960372546878,0,0,0,0
-0.053943714662659105,0.0031340290682901287,0.023734489725468776,0,0,0,0
0.0507759253373409,-5.363183170987128e-05,-0.009461398474531226,0,0,0,0
0.0379803813373409,-0.02062447623170987,-0.038939710274531227,0,0,0,0
-0.016184218662659105,0.01351429116829013,-0.025263412274531227,0,0,0,0
-0.016184218662659105,0.01351429116829013,-0.025263412274531227,0,0,0,0
-0.07296455466265911,0.014073182368290128,0.002476183725468776,0,0,0,0
0.0433107533373409,0.033967033768290134,0.0009329247254687744,0,0,0,0
0.0433107533373409,0.033967033768290134,0.0009329247254687744,0,0,0,0
0.0497081913373409,0.02374751576829013,-0.0006071162745312263,0,0,0,0
0.0497081913373409,0.02374751576829013,-0.0006071162745312263,0,0,0,0
-0.022066100662659103,-0.01921318023170987,0.022900369725468776,0,0,0,0
-0.0432054346626591,0.029851383768290128,0.025704149725468774,0,0,0,0
-0.005095179662659106,-0.012558716231709873,-0.004680760274531225,0,0,0,0
0.0464329853373409,-0.04020344823170987,-0.0020982222745312253,0,0,0,0
0.08381663933734089,-0.037309244231709865,-0.016890545274531224,0,0,0,0
0.07095967933734089,-0.01766249923170987,-0.0012060122745312244,0,0,0,0
-0.004307349342659105,0.006917757268290129,0.0055287407254687735,0,0,0,0
-0.004307349342659105,0.006917757268290129,0.0055287407254687735,0,0,0,0
-0.043773824662659104,0.024722847768290125,0.03901552972546878,0,0,0,0
-0.043773824662659104,0.024722847768290125,0.03901552972546878,0,0,0,0
-0.0036366301926591058,0.01194619436829013,0.018561474725468773,0,0,0,0
0.10123225533734088,-0.04257984723170987,0.025251202725468772,0,0,0,0
0.10123225533734088,-0.04257984723170987,0.025251202725468772,0,0,0,0
0.05456639933734089,-0.02068374523170987,0.008972029725468771,0,0,0,0
-0.0773287616626591,0.03209133176829013,0.017964379725468774,0,0,0,0
-0.007224925162659106,-0.00900298423170987,0.0012977883254687737,0,0,0,0
0.0007409256373408944,-0.02406985123170987,-0.022683675274531225,0,0,0,0
0.057658495337340895,-0.04512132423170987,-0.017156322274531226,0,0,0,0
-0.03959368066265911,0.05773445576829014,-0.011602015874531225,0,0,0,0
-0.03959368066265911,0.05773445576829014,-0.011602015874531225,0,0,0,0
-0.020221217662659104,-0.00980936123170987,0.002121738725468774,0,0,0,0
-0.020221217662659104,-0.00980936123170987,0.002121738725468774,0,0,0,0
0.03182775233734089,-0.005521949631709872,0.008468584725468773,0,0,0,0
0.04845143933734089,-0.009834846231709871,0.011446432725468771,0,0,0,0
0.04845143933734089,-0.009834846231709871,0.011446432725468771,0,0,0,0
-0.05278414066265911,0.02251838376829013,0.000457541725468775,0,0,0,0
-0.05938757466265911,-0.01946019823170987,-0.001860971774531225,0,0,0,0
-0.05938757466265911,-0.01946019823170987,-0.001860971774531225,0,0,0,0
0.010370842337340893,-0.01837459123170987,-0.007270129074531225,0,0,0,0
-0.044130118662659104,-0.04133358823170987,0.013923577725468771,0,0,0,0
0.03287631733734089,-0.02342465423170987,0.001821295725468775,0,0,0,0
0.03287631733734089,-0.02342465423170987,0.001821295725468775,0,0,0,0
0.03287631733734089,-0.02342465423170987,0.001821295725468775,0,0,0,0
-0.0005620796626591056,-0.021092065231709874,0.006438486725468775,0,0,0,0
-0.014744074662659104,-0.027912238231709872,0.02550448572546878,0,0,0,0
-0.0027252036626591054,0.016411093768290128,0.021414987725468775,0,0,0,0
0.011392991337340893,-0.027406567231709873,-0.002771659274531225,0,0,0,0
0.011392991337340893,-0.027406567231709873,-0.002771659274531225,0,0,0,0
0.004186646337340894,-0.007450055631709871,-0.0050169184745312255,0,0,0,0
0.027999703337340892,0.02161804476829013,0.006772248725468776,0,0,0,0
0.027999703337340892,0.02161804476829013,0.006772248725468776,0,0,0,0
-0.024633200662659102,0.01935249576829013,0.015406803725468775,0,0,0,0
-0.024633200662659102,0.01935249576829013,0.015406803725468775,0,0,0,0
-0.013541205662659105,0.016670882768290127,0.009993664725468775,0,0,0,0
0.0310115973373409,0.012202740168290128,-0.0019173102745312252,0,0,0,0
0.0310115973373409,0.012202740168290128,-0.0019173102745312252,0,0,0,0
0.03317777333734089,-0.011237200231709873,-0.014408083274531224,0,0,0,0
0.045976845337340894,0.006439090268290129,-0.007289250234531225,0,0,0,0
-0.024030764662659104,0.07696875976829012,0.006875411725468774,0,0,0,0
-0.024030764662659104,0.07696875976829012,0.006875411725468774,0,0,0,0
-0.024030764662659104,0.07696875976829012,0.006875411725468774,0,0,0,0
-0.013342555162659104,0.05970861976829012,0.01746057672546877,0,0,0,0
-0.013342555162659104,0.05970861976829012,0.01746057672546877,0,0,0,0
-0.013342555162659104,0.05970861976829012,0.01746057672546877,0,0,0,0
-0.04079941066265911,0.030369621768290132,0.011004309725468772,0,0,0,0
-0.0366020996626591,-0.01609311623170987,0.013116125725468771,0,0,0,0
0.026623551337340897,-0.02860624123170987,0.007238511725468776,0,0,0,0
-0.0030814009626591054,0.060416239768290136,0.007839934725468775,0,0,0,0
-0.0030814009626591054,0.060416239768290136,0.007839934725468775,0,0,0,0
-0.05816744166265911,-0.061749564231709866,-0.03468906427453122,0,0,0,0
-0.018028529662659106,-0.038054799231709874,-0.015809066274531224,0,0,0,0
-0.018028529662659106,-0.038054799231709874,-0.015809066274531224,0,0,0,0
-0.021501334662659105,0.02300035076829013,-0.009094889474531225,0,0,0,0
-0.0582773046626591,0.06635343576829013,0.007558540725468775,0,0,0,0
-0.07374523466265911,0.03359735376829013,0.02320789572546877,0,0,0,0
-0.013278754662659105,-0.028269614231709872,0.011564747725468776,0,0,0,0
-0.013278754662659105,-0.028269614231709872,0.011564747725468776,0,0,0,0
-0.013278754662659105,-0.028269614231709872,0.011564747725468776,0,0,0,0
-0.05818289066265911,0.00011515066829012859,0.03686402272546878,0,0,0,0
-0.016407092262659104,0.0024787803082901285,0.02505216972546877,0,0,0,0
-0.016407092262659104,0.0024787803082901285,0.02505216972546877,0,0,0,0
0.047837368337340896,-0.017985859231709873,0.010858694725468774,0,0,0,0
-0.0428901506626591,-0.02751733623170987,0.03912039272546878,0,0,0,0
-0.0428901506626591,-0.02751733623170987,0.03912039272546878,0,0,0,0
-0.06333368466265911,0.007375993268290129,0.03563441472546878,0,0,0,0
-0.06333368466265911,0.007375993268290129,0.03563441472546878,0,0,0,0
0.06990834933734089,-0.054777654231709876,0.03299448972546878,0,0,0,0
0.06990834933734089,-0.054777654231709876,0.03299448972546878,0,0,0,0
0.006159417337340894,-0.05748135423170987,0.000133769125468774,0,0,0,0
-0.028127081662659106,-0.051372844231709874,-0.003335125774531225,0,0,0,0
0.0010889213373408944,0.02911477176829013,-0.011698181974531225,0,0,0,0
-0.03423879966265911,0.07359989976829014,-0.012501318774531225,0,0,0,0
-0.010972483662659106,-0.004138856631709872,-0.029550059274531224,0,0,0,0
0.039497105337340896,-0.07638097423170986,-0.04152159227453122,0,0,0,0
0.07617217533734089,-0.06505132423170987,-0.015015109274531226,0,0,0,0
0.055079475337340894,0.01181794876829013,-0.019791574774531227,0,0,0,0
0.055079475337340894,0.01181794876829013,-0.019791574774531227,0,0,0,0
-0.13951948466265912,0.0010995720682901286,0.05671496972546878,0,0,0,0
-0.06343134466265911,-0.04583005423170987,0.03280089372546878,0,0,0,0
-0.06343134466265911,-0.04583005423170987,0.03280089372546878,0,0,0,0
0.07163421533734089,-0.05982105123170987,-0.010003419274531225,0,0,0,0
0.07163421533734089,-0.05982105123170987,-0.010003419274531225,0,0,0,0
0.15032798533734087,-0.02207370923170987,0.004518918725468775,0,0,0,0
-0.1357573346626591,0.05719432576829013,0.03637243372546878,0,0,0,0
-0.10211523466265912,0.01899263276829013,0.028344486725468774,0,0,0,0
-0.025286276662659105,-0.014038905231709873,0.007599405725468773,0,0,0,0
0.0932516253373409,-0.017785834231709867,-0.025254877274531226,0,0,0,0
0.1714903053373409,-0.02040946123170987,-0.03163393327453122,0,0,0,0
-0.022250159662659103,-0.0014945352317098713,-0.007478804924531225,0,0,0,0
-0.12246187466265912,-0.0017222072317098717,0.021024589725468775,0,0,0,0
-0.13138283466265913,0.021924129768290126,0.04008817472546878,0,0,0,0
-0.017162211662659105,0.02842687576829013,-0.006794329074531225,0,0,0,0
-0.017162211662659105,0.02842687576829013,-0.006794329074531225,0,0,0,0
-0.017162211662659105,0.02842687576829013,-0.006794329074531225,0,0,0,0
0.07716781533734088,-0.022233666231709873,-0.013253887074531224,0,0,0,0
-0.0778829416626591,-0.0006177838317098713,0.00014306772546877466,0,0,0,0
-0.0778829416626591,-0.0006177838317098713,0.00014306772546877466,0,0,0,0
-0.17039144466265913,0.023856792768290128,0.010642485725468772,0,0,0,0
-0.17039144466265913,0.023856792768290128,0.010642485725468772,0,0,0,0
0.05435115533734089,0.030319878768290127,-0.04635886727453122,0,0,0,0
-0.08538454466265911,-0.01578522123170987,0.005817846725468774,0,0,0,0
-0.1334147246626591,0.017451921768290128,0.017803816725468772,0,0,0,0
-0.06381014466265911,0.02371560076829013,0.02263014772546877,0,0,0,0
-0.06381014466265911,0.02371560076829013,0.02263014772546877,0,0,0,0
-0.013485987662659106,-0.003823008631709871,-0.005217988874531225,0,0,0,0
-0.013485987662659106,-0.003823008631709871,-0.005217988874531225,0,0,0,0
-0.1220325346626591,-0.004699763231709871,0.04176231472546878,0,0,0,0
-0.11688555466265911,0.02340992576829013,0.03989090772546878,0,0,0,0
0.0927380723373409,0.054356675768290126,-0.0036924436745312253,0,0,0,0
-0.056452258662659106,-0.009812752231709873,-0.005728800674531225,0,0,0,0
-0.056452258662659106,-0.009812752231709873,-0.005728800674531225,0,0,0,0
-0.056452258662659106,-0.009812752231709873,-0.005728800674531225,0,0,0,0
-0.1449178546626591,-0.02182017423170987,0.013056318725468776,0,0,0,0
-0.033510382662659106,-0.0046313742317098715,0.016569999725468774,0,0,0,0
0.10475608533734089,0.02489916976829013,-0.030996103274531228,0,0,0,0
0.10475608533734089,0.02489916976829013,-0.030996103274531228,0,0,0,0
0.005172078337340894,-0.009013329231709872,0.022252492725468774,0,0,0,0
-0.0894554946626591,-0.03840133423170987,0.02219801372546877,0,0,0,0
-0.04563625666265911,-0.005195377231709872,0.011533693725468776,0,0,0,0
-0.04563625666265911,-0.005195377231709872,0.011533693725468776,0,0,0,0
-0.016919692662659105,0.02871767576829013,0.021834259725468774,0,0,0,0
-0.016919692662659105,0.02871767576829013,0.021834259725468774,0,0,0,0
-0.012272055662659105,0.028750378768290133,0.019913296725468776,0,0,0,0
0.021980015337340893,-0.02773957223170987,0.017012075725468773,0,0,0,0
0.05981094033734089,0.004308276368290129,-0.005631430474531225,0,0,0,0
0.05981094033734089,0.004308276368290129,-0.005631430474531225,0,0,0,0
0.05210077033734089,0.013527500768290129,0.007157270725468775,0,0,0,0
0.05210077033734089,0.013527500768290129,0.007157270725468775,0,0,0,0
0.007269398337340894,0.014156359168290129,0.010082618725468773,0,0,0,0
0.007269398337340894,0.014156359168290129,0.010082618725468773,0,0,0,0
-0.006593688162659105,-0.024929654231709876,-0.03928504727453123,0,0,0,0
0.08296567533734088,-0.04620414923170987,-0.03923260727453122,0,0,0,0
0.025823609337340892,-0.010591655231709872,-0.011019547274531225,0,0,0,0
-0.0537408666626591,0.060334229768290136,0.04106000972546878,0,0,0,0
0.07085973533734088,0.0006892372682901285,0.009489039725468773,0,0,0,0
0.07276946533734088,-0.017819677231709873,0.013769678725468772,0,0,0,0
-0.033298380662659104,0.008240734468290128,0.006045274725468776,0,0,0,0
-0.033298380662659104,0.008240734468290128,0.006045274725468776,0,0,0,0
-0.033298380662659104,0.008240734468290128,0.006045274725468776,0,0,0,0
-0.033298380662659104,0.008240734468290128,0.006045274725468776,0,0,0,0
0.016822831337340895,0.009458849268290128,0.011332623725468775,0,0,0,0
0.10004541533734088,-0.03877525923170987,-0.04516737027453122,0,0,0,0
0.10004541533734088,-0.03877525923170987,-0.04516737027453122,0,0,0,0
0.038490502337340894,-0.027696639231709876,-0.05144689827453122,0,0,0,0
-0.0594852286626591,0.012766892168290129,-0.037642832274531225,0,0,0,0
-0.10452392466265911,0.04837093976829013,-0.012641663874531226,0,0,0,0
-0.10452392466265911,0.04837093976829013,-0.012641663874531226,0,0,0,0
-0.0004656630626591052,0.007808860068290129,0.012729625725468773,0,0,0,0
0.08040305533734089,-0.006988897231709873,0.008574680725468773,0,0,0,0
0.06972324033734088,0.015067890768290128,0.013780538725468774,0,0,0,0
-0.07148989066265912,0.010153347768290128,0.02701259672546877,0,0,0,0
-0.07148989066265912,0.010153347768290128,0.02701259672546877,0,0,0,0
0.0345249333373409,-0.014482116231709872,0.006238285725468774,0,0,0,0
0.0345249333373409,-0.014482116231709872,0.006238285725468774,0,0,0,0
0.0345249333373409,-0.014482116231709872,0.006238285725468774,0,0,0,0
0.07182037033734089,-0.004640580231709871,-0.016524811274531225,0,0,0,0
0.054945771337340896,-0.0007329936317098714,-0.019855816674531224,0,0,0,0
0.004025570737340895,-0.004109513231709872,-0.013602669574531226,0,0,0,0
-0.008164580662659106,0.027185556768290133,0.0009753627254687749,0,0,0,0
-0.008164580662659106,0.027185556768290133,0.0009753627254687749,0,0,0,0
0.03881026933734089,0.012808831768290127,0.0030283257254687746,0,0,0,0
0.033548180337340895,-0.02218640823170987,-0.005543454074531225,0,0,0,0
0.033548180337340895,-0.02218640823170987,-0.005543454074531225,0,0,0,0
-0.026502402662659102,-0.02553577423170987,0.027050481725468773,0,0,0,0
-0.03251369766265911,0.014893031768290129,0.021828357725468775,0,0,0,0
-0.009998496162659106,0.031713615768290127,0.021437196725468774,0,0,0,0
-0.009998496162659106,0.031713615768290127,0.021437196725468774,0,0,0,0
0.009378258337340895,-0.00845557823170987,0.007998459725468775,0,0,0,0
0.009378258337340895,-0.00845557823170987,0.007998459725468775,0,0,0,0
0.005707089337340894,-0.03659779423170987,-0.024684734274531227,0,0,0,0
0.005707089337340894,-0.03659779423170987,-0.024684734274531227,0,0,0,0
-0.05526626866265911,-0.04300359723170987,-0.0025543882745312253,0,0,0,0
-0.05526626866265911,-0.04300359723170987,-0.0025543882745312253,0,0,0,0
-0.0521324946626591,-0.002868599731709872,0.005148212725468775,0,0,0,0
-0.0521324946626591,-0.002868599731709872,0.005148212725468775,0,0,0,0
0.06929170533734089,0.007967675168290129,0.013190178725468776,0,0,0,0
0.10807811533734088,0.014294743768290128,0.000909130225468774,0,0,0,0
0.10807811533734088,0.014294743768290128,0.000909130225468774,0,0,0,0
0.0728394653373409,0.01896656476829013,0.005500153725468775,0,0,0,0
-0.09060400466265911,0.018069002768290127,0.014424983725468774,0,0,0,0
-0.09659813466265911,0.014271889368290129,-0.0018308712745312254,0,0,0,0
0.0472479053373409,0.00018125676829012843,-0.018718929274531226,0,0,0,0
0.1032161853373409,-0.05177645423170987,-0.015664740274531228,0,0,0,0
0.050048655337340896,-0.03296250623170987,0.009682933725468773,0,0,0,0
0.050048655337340896,-0.03296250623170987,0.009682933725468773,0,0,0,0
-0.06803053466265911,0.10262194576829012,0.015852157725468774,0,0,0,0
-0.06803053466265911,0.10262194576829012,0.015852157725468774,0,0,0,0
-0.08514536466265911,-0.019572278231709872,0.03386898472546878,0,0,0,0
0.010282818337340894,-0.04975996423170986,0.010525457725468774,0,0,0,0
0.029326835337340894,0.01754819376829013,0.0026005193254687734,0,0,0,0
0.023607747337340897,-0.005339550231709871,-0.024965949274531225,0,0,0,0
-0.11479147466265911,-0.018662470231709867,0.011442987725468774,0,0,0,0
0.0414282003373409,-0.0060944612317098724,0.011594776725468773,0,0,0,0
-0.026145918662659105,-0.03615244923170987,0.03925558172546877,0,0,0,0
-0.022971518662659104,0.0032639388682901287,0.022534749725468775,0,0,0,0
0.0471822903373409,-0.00012891693170987133,0.0015340607254687747,0,0,0,0
0.0471822903373409,-0.00012891693170987133,0.0015340607254687747,0,0,0,0
-0.09248655466265912,0.03436325276829013,0.015623371725468776,0,0,0,0
-0.09248655466265912,0.03436325276829013,0.015623371725468776,0,0,0,0
0.0567862653373409,0.0026533474082901286,0.003639320725468774,0,0,0,0
0.032687298337340895,-0.060193568231709876,0.009085897725468774,0,0,0,0
0.03199226033734089,0.02862391776829013,0.004606883225468776,0,0,0,0
0.06386558233734088,0.005561724768290129,0.009731094725468774,0,0,0,0
0.045294682337340894,0.013325812368290129,0.010040192725468775,0,0,0,0
-0.045359881662659106,0.02045542976829013,-0.008138211114531226,0,0,0,0
0.0479477093373409,-0.006776189231709872,-0.04605561027453122,0,0,0,0
0.06787110933734089,-0.037733664231709874,-0.044475300274531226,0,0,0,0
0.06584521933734089,-0.05126789423170987,-0.030561287274531227,0,0,0,0
-0.052026827662659106,0.0053659100682901285,0.017149905725468772,0,0,0,0
-0.052026827662659106,0.0053659100682901285,0.017149905725468772,0,0,0,0
0.002932278337340894,0.037117108768290136,0.030937371725468777,0,0,0,0
0.0643656893373409,0.017274929768290127,0.023373721725468775,0,0,0,0
0.04242574533734089,0.007507715068290129,0.012128571725468773,0,0,0,0
-0.021234972662659106,-0.007618340231709871,0.015343729725468776,0,0,0,0
0.032997529337340896,-0.0015869792317098714,0.011677495725468775,0,0,0,0
0.02386180533734089,-0.018520664231709873,-0.05020448727453122,0,0,0,0
-0.015155299662659105,-0.007278525231709873,-0.05094940227453122,0,0,0,0
-0.015275462262659106,0.00881403436829013,-0.026543040274531225,0,0,0,0
0.0213350453373409,-0.0015433722317098717,-0.017409081774531224,0,0,0,0
-0.053316576662659106,-0.019136898231709873,0.018945966725468773,0,0,0,0
-0.09115637166265911,-0.004271015231709871,0.018914399725468777,0,0,0,0
0.023831288337340897,-0.02346945923170987,0.008395461725468772,0,0,0,0
-0.0403057886626591,-0.051963994231709866,0.021161649725468776,0,0,0,0
0.061511915337340885,-0.00987962023170987,-0.04076640027453122,0,0,0,0
-0.10074985766265912,0.06900710576829013,0.027198426725468777,0,0,0,0
0.06000863533734089,0.0068983499682901284,0.004694215725468774,0,0,0,0
-0.024350436662659104,-0.031097766231709872,0.009822992725468774,0,0,0,0
-0.1266274246626591,0.03440644776829013,0.03600874372546878,0,0,0,0
0.029775635337340893,-0.017613810231709874,-0.019705017274531226,0,0,0,0
-0.0882928686626591,0.02527463776829013,0.018318019725468773,0,0,0,0
-0.027248747662659105,0.02524482676829013,0.004510490725468775,0,0,0,0
0.0649192953373409,-0.02824903723170987,-0.017421706274531226,0,0,0,0
-0.1158918246626591,0.018187660768290127,0.011744658725468773,0,0,0,0
0.09688550533734089,-0.04174170423170987,-0.034021123274531224,0,0,0,0
-0.1490276146626591,0.021818535768290133,-0.001608796274531225,0,0,0,0
-0.07946403766265911,5.020846829012883e-05,0.008625404725468775,0,0,0,0
0.09744283533734088,-0.028987788231709867,-0.008443565704531225,0,0,0,0
-0.1182357646626591,-0.0031598697317098716,0.03205884572546878,0,0,0,0
0.06116983133734089,-0.06116796423170988,-0.017366178274531227,0,0,0,0
0.06116983133734089,-0.06116796423170988,-0.017366178274531227,0,0,0,0
-0.07205913866265912,-0.03346259423170987,0.009774176725468774,0,0,0,0
0.07170888533734089,0.01217556076829013,0.0029204767254687744,0,0,0,0
-0.0012292701626591056,-0.01120981523170987,0.011868171725468776,0,0,0,0
-0.038550456662659105,-0.0011606584317098716,0.020160839725468775,0,0,0,0
-0.0030956107626591055,-0.04692124123170987,-0.013205416574531226,0,0,0,0
0.022805707337340893,-0.004300708631709871,0.012905935725468772,0,0,0,0
0.0467987223373409,-0.020959698231709872,0.005868927725468774,0,0,0,0
0.019018761337340897,-0.018589553231709875,-0.009649546474531225,0,0,0,0
-0.006736262462659105,-0.014301702231709871,0.0058026957254687745,0,0,0,0
-0.025834544662659106,0.01164080976829013,-0.006175966574531225,0,0,0,0
0.032364765337340895,0.02722039376829013,-0.016496582274531227,0,0,0,0
0.017981068337340894,-0.04324485623170987,0.0015195652254687752,0,0,0,0
-0.008978922962659106,0.02237219376829013,0.007185964725468776,0,0,0,0
0.0043675583373408945,-0.0009646098317098719,-0.018023927274531226,0,0,0,0
0.044882123337340894,-0.027445351231709873,-0.024716480274531227,0,0,0,0
-0.07225731466265911,0.02165226676829013,0.0029084967254687745,0,0,0,0
-0.07225731466265911,0.02165226676829013,0.0029084967254687745,0,0,0,0
-0.014272292262659105,-0.007016925231709872,0.0054289027254687755,0,0,0,0
-0.018424876662659104,-0.00958937523170987,-0.013816960274531224,0,0,0,0
0.015220658337340896,-0.05830094423170987,0.0022221607254687753,0,0,0,0
-0.03636816466265911,0.05577610176829013,0.04043141972546878,0,0,0,0
0.04420310533734089,0.005708966068290129,-0.0006541682745312251,0,0,0,0
0.0315695923373409,-0.02791752723170987,0.028550891725468774,0,0,0,0
-0.030121404662659106,0.01441913076829013,0.013469581725468773,0,0,0,0
-0.015412600662659107,-0.0016378622317098713,0.006665043725468773,0,0,0,0
0.031553952337340894,0.02489931576829013,-0.009908778974531225,0,0,0,0
0.028491705337340897,0.006915797768290128,-0.002779312474531225,0,0,0,0
-0.14386003466265912,-0.004169483231709872,0.009546498725468776,0,0,0,0
-0.11858337466265911,0.03678206276829013,0.004199592725468775,0,0,0,0
0.1030753253373409,0.0062174397682901285,-0.0012482122745312253,0,0,0,0
0.023935143337340894,-0.009577539231709871,0.0069172667254687745,0,0,0,0
-0.05492103866265911,0.031185469768290126,0.012040726725468773,0,0,0,0
-0.023675997662659105,0.00952469526829013,0.012864844725468776,0,0,0,0
-0.008219130662659106,-0.052946609231709865,0.02048151372546877,0,0,0,0
-0.008250887962659107,-0.05253384423170987,0.02016581172546877,0,0,0,0
0.009321133337340897,0.028315788768290127,0.004633717225468774,0,0,0,0
-0.0467063746626591,-0.005471858231709871,-0.016336126674531225,0,0,0,0
-0.09472549466265912,0.0007465217682901286,-0.012948639774531225,0,0,0,0
-0.09472549466265912,0.0007465217682901286,-0.012948639774531225,0,0,0,0
0.0069399993373408944,0.014018322768290127,0.0028682277254687754,0,0,0,0
0.043324772337340896,0.04350932276829013,0.002369980725468775,0,0,0,0
-0.10085933966265911,-0.027997344231709867,0.011253719725468774,0,0,0,0
-0.10085933966265911,-0.027997344231709867,0.011253719725468774,0,0,0,0
-0.10950039466265911,-0.004095396231709871,0.016830937725468773,0,0,0,0
0.0378936923373409,0.02832344576829013,0.0038788007254687744,0,0,0,0
-0.004258235112659106,0.0012480978682901287,-0.007510013914531225,0,0,0,0
-0.056026254662659106,-0.014306086231709871,-0.005399663774531225,0,0,0,0
-0.0522475086626591,0.07866138576829014,-0.006573207674531225,0,0,0,0
-0.0522475086626591,0.07866138576829014,-0.006573207674531225,0,0,0,0
0.015443245337340896,-0.03513748623170987,-0.0018907860745312251,0,0,0,0
0.015443245337340896,-0.03513748623170987,-0.0018907860745312251,0,0,0,0
0.05008031533734089,-0.01401742223170987,-0.005973251274531225,0,0,0,0
0.05008031533734089,-0.01401742223170987,-0.005973251274531225,0,0,0,0
-0.08430012066265911,0.04575841776829013,0.008910302725468774,0,0,0,0
-0.08430012066265911,0.04575841776829013,0.008910302725468774,0,0,0,0
-0.08430012066265911,0.04575841776829013,0.008910302725468774,0,0,0,0
-0.0504612766626591,-0.03679147923170987,0.027521316725468776,0,0,0,0
-0.0504612766626591,-0.03679147923170987,0.027521316725468776,0,0,0,0
0.07030288533734089,0.01040705976829013,-0.0002058342745312261,0,0,0,0
-0.07798641466265911,-0.02711094523170987,0.028693155725468777,0,0,0,0
-0.07798641466265911,-0.02711094523170987,0.028693155725468777,0,0,0,0
-0.07798641466265911,-0.02711094523170987,0.028693155725468777,0,0,0,0
0.08672515533734089,0.00027478076829012864,-0.014512188774531226,0,0,0,0
0.044588105337340894,0.006496433768290129,-0.023673565274531228,0,0,0,0
-0.023201926662659106,-0.004594372231709872,-0.020323153274531228,0,0,0,0
-0.0351379246626591,0.012647649368290128,-0.023852546274531226,0,0,0,0
0.026745717337340897,0.037077245768290135,-0.015127106274531225,0,0,0,0
0.026745717337340897,0.037077245768290135,-0.015127106274531225,0,0,0,0
0.036218087337340894,-0.006487639231709872,0.016485945725468774,0,0,0,0
0.025709168337340896,-0.04741194823170987,0.002071587725468776,0,0,0,0
0.028716389337340893,0.01286550076829013,-0.012055726274531225,0,0,0,0
0.028716389337340893,0.01286550076829013,-0.012055726274531225,0,0,0,0
-0.06770590166265911,0.07794967976829013,0.005907849725468774,0,0,0,0
-0.06770590166265911,0.07794967976829013,0.005907849725468774,0,0,0,0
0.020152394337340895,-0.04936827923170987,-0.05182519727453123,0,0,0,0
0.11332103533734088,-0.029050740231709865,-0.058213897274531225,0,0,0,0
0.11332103533734088,-0.029050740231709865,-0.058213897274531225,0,0,0,0
0.042277829337340894,-0.00045122313170987147,-0.036176844274531224,0,0,0,0
-0.2085907346626591,-0.006166093231709871,0.008817951725468773,0,0,0,0
-0.2085907346626591,-0.006166093231709871,0.008817951725468773,0,0,0,0
-0.1840285146626591,-0.008740649631709872,0.02849237772546877,0,0,0,0
0.1090022253373409,0.04620411776829013,-0.0017600252745312251,0,0,0,0
0.1949611853373409,0.03866314076829013,-0.016262944274531226,0,0,0,0
-0.020117648662659107,-0.04802820423170987,-0.0028972102745312258,0,0,0,0
-0.1934131446626591,-0.034623661231709874,0.017075912725468774,0,0,0,0
-0.24460857466265912,0.009707767268290129,0.03563120172546878,0,0,0,0
-0.24460857466265912,0.009707767268290129,0.03563120172546878,0,0,0,0
0.1526106953373409,-0.01631488423170987,-0.03307847527453122,0,0,0,0
0.1297751553373409,-0.09835291423170987,-0.031104596274531226,0,0,0,0
0.1297751553373409,-0.09835291423170987,-0.031104596274531226,0,0,0,0
-0.18468335466265912,0.08047007576829013,0.058410434725468786,0,0,0,0
-0.18468335466265912,0.08047007576829013,0.058410434725468786,0,0,0,0
0.11374503533734089,0.0077722107682901284,-0.005599327474531225,0,0,0,0
0.033704965337340895,0.006087793768290129,-0.0025496557745312252,0,0,0,0
-0.06305597466265911,-0.005016281231709871,-0.017515106274531227,0,0,0,0
-0.016760524662659107,-0.03993298923170987,-0.028123708274531225,0,0,0,0
-0.016760524662659107,-0.03993298923170987,-0.028123708274531225,0,0,0,0
0.0402479333373409,0.01912730876829013,-0.030128558274531227,0,0,0,0
0.0402479333373409,0.01912730876829013,-0.030128558274531227,0,0,0,0
0.009826390337340892,-0.049226214231709864,0.0017079997254687744,0,0,0,0
-0.013768561662659107,-0.048698538231709866,0.014638273725468772,0,0,0,0
-0.013768561662659107,-0.048698538231709866,0.014638273725468772,0,0,0,0
-0.030607207662659106,0.02077022376829013,-0.004178591274531226,0,0,0,0
-0.05430515466265911,-0.06456783923170988,-0.003676314674531225,0,0,0,0
-0.05430515466265911,-0.06456783923170988,-0.003676314674531225,0,0,0,0
-0.017036898662659106,-0.13184218423170987,-0.024904866274531225,0,0,0,0
0.022846428337340897,-0.01858145523170987,-0.023593195274531225,0,0,0,0
-0.009436495962659105,-0.06015893723170987,-0.035150368274531225,0,0,0,0
0.029578129337340893,0.03240805576829013,-0.012077529774531224,0,0,0,0
0.017741791337340895,0.04134092376829013,-0.002602668274531225,0,0,0,0
-0.0560007886626591,0.006985795168290129,-0.013004644274531225,0,0,0,0
-0.015478118062659106,0.012111350768290128,0.0037151377254687748,0,0,0,0
0.06904660833734089,-0.05192071723170987,-0.018612964274531227,0,0,0,0
0.013261906337340895,-0.06344398423170987,-0.009881658874531225,0,0,0,0
-0.0556331446626591,-0.053709264231709866,-0.010350210974531225,0,0,0,0
-0.09614132466265911,-0.030713498231709872,0.016099874725468775,0,0,0,0
-0.09614132466265911,-0.030713498231709872,0.016099874725468775,0,0,0,0
-0.08703592466265911,-0.0010767782317098714,0.04115423972546878,0,0,0,0
0.14710504533734087,0.0031432647682901283,-0.036618980274531227,0,0,0,0
0.0898372813373409,-0.004483109231709872,-0.014699109274531226,0,0,0,0
-0.0395584896626591,0.02646872776829013,-0.021315725274531225,0,0,0,0
-0.0395584896626591,0.02646872776829013,-0.021315725274531225,0,0,0,0
-0.15769213466265913,0.05254465976829013,-0.019706364274531225,0,0,0,0
-0.09808052466265911,0.005166587768290129,-0.026534565274531227,0,0,0,0
-0.09808052466265911,0.005166587768290129,-0.026534565274531227,0,0,0,0
0.010906903337340897,-0.06566343823170988,-0.03517344727453122,0,0,0,0
0.010906903337340897,-0.06566343823170988,-0.03517344727453122,0,0,0,0
0.10224181533734089,-0.04731368423170987,0.002143482725468775,0,0,0,0
0.10224181533734089,-0.04731368423170987,0.002143482725468775,0,0,0,0
0.0474853653373409,0.033641833768290136,0.01825161472546877,0,0,0,0
0.0474853653373409,0.033641833768290136,0.01825161472546877,0,0,0,0
-0.08415010466265911,0.025760287768290126,0.028336016725468777,0,0,0,0
0.002397362337340895,-0.03098550723170987,0.0075776027254687755,0,0,0,0
0.008910672337340896,-0.02570306623170987,-0.023325188274531228,0,0,0,0
-0.009831984662659107,-0.006625674231709872,-0.04149956227453123,0,0,0,0
-0.008129771362659105,-0.0011319572317098712,-0.03461757427453123,0,0,0,0
-0.008129771362659105,-0.0011319572317098712,-0.03461757427453123,0,0,0,0
-0.008100588962659106,-0.0009849216317098712,-0.034423978274531225,0,0,0,0
0.0760363753373409,0.0022620101362901286,-0.002785570974531225,0,0,0,0
0.0760363753373409,0.0022620101362901286,-0.002785570974531225,0,0,0,0
0.0760363753373409,0.0022620101362901286,-0.002785570974531225,0,0,0,0
-0.09902685466265912,0.01928419376829013,0.023640326725468775,0,0,0,0
-0.09902685466265912,0.01928419376829013,0.023640326725468775,0,0,0,0
-0.0955674006626591,0.02348673076829013,0.040441934725468774,0,0,0,0
-0.0955674006626591,0.02348673076829013,0.040441934725468774,0,0,0,0
0.050564782337340894,0.005573648768290129,-0.003982026874531225,0,0,0,0
0.08911468233734089,-0.02610328723170987,-0.04074768527453122,0,0,0,0
0.08911468233734089,-0.02610328723170987,-0.04074768527453122,0,0,0,0
-0.00019634546265910558,-0.032176586231709874,-0.06089061027453122,0,0,0,0
-0.09157942166265912,-0.02236588423170987,-0.023702736274531226,0,0,0,0
-0.060392840662659104,0.01703469076829013,0.006435326725468774,0,0,0,0
-0.060392840662659104,0.01703469076829013,0.006435326725468774,0,0,0,0
0.09422961933734089,0.019628447768290126,-0.007861776694531225,0,0,0,0
0.09422961933734089,0.019628447768290126,-0.007861776694531225,0,0,0,0
-0.061500819662659106,-0.00862392063170987,-0.007416315414531225,0,0,0,0
-0.061500819662659106,-0.00862392063170987,-0.007416315414531225,0,0,0,0
-0.13757799466265913,0.020571369768290125,-0.016192455274531226,0,0,0,0
-0.13757799466265913,0.020571369768290125,-0.016192455274531226,0,0,0,0
-0.04556749666265911,0.035686081768290134,-0.016949351274531226,0,0,0,0
-0.04556749666265911,0.035686081768290134,-0.016949351274531226,0,0,0,0
0.07632800533734088,-0.05174173423170987,-0.028987868274531224,0,0,0,0
0.07632800533734088,-0.05174173423170987,-0.028987868274531224,0,0,0,0
0.07632800533734088,-0.05174173423170987,-0.028987868274531224,0,0,0,0
-0.06755159466265911,-0.01406806923170987,-0.000501306274531225,0,0,0,0
-0.10866421466265912,0.05249713576829013,0.03495952372546878,0,0,0,0
-0.09930017766265911,0.06557651576829013,0.011209170725468773,0,0,0,0
-0.09930017766265911,0.06557651576829013,0.011209170725468773,0,0,0,0
-0.09930017766265911,0.06557651576829013,0.011209170725468773,0,0,0,0
-0.04103363466265911,0.005877863368290128,0.0014970467254687746,0,0,0,0
-0.0010732489626591058,-0.06643585423170988,-0.030554206274531225,0,0,0,0
0.03424674733734089,-0.02191326023170987,-0.027471085274531227,0,0,0,0
0.0045460863373408935,0.024519962768290125,-0.011026211274531225,0,0,0,0
0.0045460863373408935,0.024519962768290125,-0.011026211274531225,0,0,0,0
0.0045460863373408935,0.024519962768290125,-0.011026211274531225,0,0,0,0
0.0045460863373408935,0.024519962768290125,-0.011026211274531225,0,0,0,0
0.029004590337340895,0.01657902576829013,-0.005846758274531225,0,0,0,0
0.029004590337340895,0.01657902576829013,-0.005846758274531225,0,0,0,0
0.024967209337340895,-0.03295643023170987,-0.03438967027453123,0,0,0,0
0.024967209337340895,-0.03295643023170987,-0.03438967027453123,0,0,0,0
-0.03188865966265911,-0.04379232423170987,-0.005402930074531225,0,0,0,0
-0.11654699466265912,-0.02447364423170987,-0.004586763674531225,0,0,0,0
-0.10991524466265912,0.005033082268290128,0.016082744725468775,0,0,0,0
-0.10991524466265912,0.005033082268290128,0.016082744725468775,0,0,0,0
0.1309838453373409,0.014803540768290128,-0.0010183766745312248,0,0,0,0
0.1309838453373409,0.014803540768290128,-0.0010183766745312248,0,0,0,0
0.09887754533734087,-0.01865148023170987,-0.05258198527453122,0,0,0,0
0.09887754533734087,-0.01865148023170987,-0.05258198527453122,0,0,0,0
-0.025412257662659105,-0.027682196231709873,-0.019451804274531227,0,0,0,0
-0.1865331046626591,0.025544482768290126,0.004762486725468774,0,0,0,0
-0.0712262946626591,0.02261778176829013,0.016845421725468775,0,0,0,0
0.1749353553373409,-0.04223288223170987,-0.021210797274531224,0,0,0,0
0.1651894753373409,-0.03458952223170987,-0.04338341527453122,0,0,0,0
0.1651894753373409,-0.03458952223170987,-0.04338341527453122,0,0,0,0
-0.06034267466265911,0.00839481396829013,0.0017021697254687744,0,0,0,0
-0.06034267466265911,0.00839481396829013,0.0017021697254687744,0,0,0,0
-0.1933782846626591,0.02690703176829013,-0.002524276274531225,0,0,0,0
-0.1933782846626591,0.02690703176829013,-0.002524276274531225,0,0,0,0
-0.1933782846626591,0.02690703176829013,-0.002524276274531225,0,0,0,0
0.06976072033734089,-0.007423254231709871,-0.047657020274531225,0,0,0,0
0.06976072033734089,-0.007423254231709871,-0.047657020274531225,0,0,0,0
0.008573739337340895,-0.013815849231709873,-0.025302167274531225,0,0,0,0
-0.0605579216626591,-0.015723027231709867,-0.008666558574531226,0,0,0,0
-0.009210093662659105,0.04610345976829013,0.0008280677254687745,0,0,0,0
0.0844169753373409,0.01050198716829013,-0.026434333274531225,0,0,0,0
0.0844169753373409,0.01050198716829013,-0.026434333274531225,0,0,0,0
-0.09098509166265911,-0.015725306231709875,-0.020139844774531224,0,0,0,0
-0.09098509166265911,-0.015725306231709875,-0.020139844774531224,0,0,0,0
-0.062126334662659106,-0.002435733631709871,0.026522426725468774,0,0,0,0
0.0380602053373409,0.0037292186682901284,0.02638441772546878,0,0,0,0
0.1265993253373409,0.0030231748682901286,0.026140312725468778,0,0,0,0
0.12583810533734088,-0.03276996423170987,0.006828479725468775,0,0,0,0
0.04919025133734089,-0.051873574231709865,0.024037961725468775,0,0,0,0
0.04919025133734089,-0.051873574231709865,0.024037961725468775,0,0,0,0
-0.1071062846626591,0.014194002768290128,0.052364425725468774,0,0,0,0
0.00036536873734089453,0.04539914176829013,0.008997051725468774,0,0,0,0
0.0579494653373409,0.039099835768290125,-0.026703329274531225,0,0,0,0
0.07193080533734089,-0.010023879231709871,-0.09769480027453123,0,0,0,0
-0.0020920592626591057,-0.05102002423170987,-0.03419069827453122,0,0,0,0
-0.0020920592626591057,-0.05102002423170987,-0.03419069827453122,0,0,0,0
-0.04785326266265911,0.008770807768290128,0.059806446725468775,0,0,0,0
-0.04785326266265911,0.008770807768290128,0.059806446725468775,0,0,0,0
0.1285370053373409,0.016068066768290125,0.032678369725468774,0,0,0,0
0.1285370053373409,0.016068066768290125,0.032678369725468774,0,0,0,0
0.10029279533734088,0.03632043576829013,0.022453039725468773,0,0,0,0
-0.07957943466265911,-0.023213469231709867,0.02701301972546877,0,0,0,0
-0.1353982746626591,-0.041288614231709875,0.018389384725468774,0,0,0,0
-0.12316826466265911,-0.024028119231709867,-0.07364849627453122,0,0,0,0
0.13202992533734087,0.04894701276829013,-0.04423138627453122,0,0,0,0
0.12344056533734088,-0.0028490196317098714,-0.06351581327453122,0,0,0,0
-0.0617956946626591,0.010510754268290129,0.020402542725468775,0,0,0,0
-0.06196668966265911,0.03709159576829013,0.030053452725468773,0,0,0,0
-0.019075282662659107,0.03382365176829013,0.013267449725468776,0,0,0,0
0.0493639153373409,0.01678659076829013,0.010777632725468774,0,0,0,0
0.03659583733734089,-0.03170619423170987,-0.018196840274531226,0,0,0,0
-0.025634844662659105,-0.08294602423170987,-0.03940714027453122,0,0,0,0
-0.025552065662659107,-0.03174202423170987,0.006850568725468774,0,0,0,0
-0.025552065662659107,-0.03174202423170987,0.006850568725468774,0,0,0,0
0.009732071337340897,0.04668482576829013,0.016376642725468776,0,0,0,0
0.0601224103373409,0.055695115768290136,0.007604603725468774,0,0,0,0
0.11646033533734088,-0.014355392231709873,-0.008272881844531225,0,0,0,0
0.11646033533734088,-0.014355392231709873,-0.008272881844531225,0,0,0,0
0.1107960853373409,-0.07321651423170987,0.008917729725468775,0,0,0,0
-0.07999008466265911,-0.009568097731709871,0.002080349725468775,0,0,0,0
-0.07999008466265911,-0.009568097731709871,0.002080349725468775,0,0,0,0
-0.07999008466265911,-0.009568097731709871,0.002080349725468775,0,0,0,0
-0.07999008466265911,-0.009568097731709871,0.002080349725468775,0,0,0,0
-0.06550920766265911,-0.0007908295317098713,0.011237709725468774,0,0,0,0
-0.03613622966265911,-0.02723609123170987,-0.0019560650745312257,0,0,0,0
0.0796009253373409,-0.03916477823170987,-0.04038225027453122,0,0,0,0
0.0635804353373409,-0.043116004231709866,-0.025954611274531227,0,0,0,0
0.0635804353373409,-0.043116004231709866,-0.025954611274531227,0,0,0,0
-0.0683463886626591,0.006168428568290129,-0.020136447274531226,0,0,0,0
-0.0683463886626591,0.006168428568290129,-0.020136447274531226,0,0,0,0
-0.054687004662659106,-0.007488079231709872,-0.013368804774531225,0,0,0,0
0.003478447737340894,-0.040513038231709875,-0.020775564274531227,0,0,0,0
0.010872952337340893,-0.03038449823170987,-0.017174919274531224,0,0,0,0
-0.004422457832659106,-0.02427335423170987,-0.014807661274531224,0,0,0,0
-0.026419337662659106,-0.020340458231709872,-0.0033129766745312256,0,0,0,0
-0.026419337662659106,-0.020340458231709872,-0.0033129766745312256,0,0,0,0
-0.026419337662659106,-0.020340458231709872,-0.0033129766745312256,0,0,0,0
-0.038929254662659105,-0.007753714231709872,-0.006836004574531225,0,0,0,0
-0.038929254662659105,-0.007753714231709872,-0.006836004574531225,0,0,0,0
-0.037161810662659105,0.013777910768290129,-0.019667251274531224,0,0,0,0
-0.026188738662659104,-0.06514961423170987,-0.015425558274531227,0,0,0,0
-0.026188738662659104,-0.06514961423170987,-0.015425558274531227,0,0,0,0
-0.026188738662659104,-0.06514961423170987,-0.015425558274531227,0,0,0,0
-0.026188738662659104,-0.06514961423170987,-0.015425558274531227,0,0,0,0
0.016286675337340895,0.011985853768290129,0.02174436272546877,0,0,0,0
0.016289155337340894,0.012287204768290129,0.021717302725468773,0,0,0,0
0.002618424337340894,-0.03079311223170987,0.011348990725468775,0,0,0,0
0.002618424337340894,-0.03079311223170987,0.011348990725468775,0,0,0,0
-0.057959064662659106,-0.054241904231709874,-0.014347405774531224,0,0,0,0
-0.015780718662659104,-0.04074740423170987,-0.014549942274531226,0,0,0,0
-0.015780718662659104,-0.04074740423170987,-0.014549942274531226,0,0,0,0
0.017786232337340894,-0.015345397231709872,-0.004885752574531225,0,0,0,0
-0.0006976920626591055,-0.024237111231709872,-0.016385753274531227,0,0,0,0
-0.018886549662659104,-0.03664581423170987,-0.013414044674531226,0,0,0,0
-0.018886549662659104,-0.03664581423170987,-0.013414044674531226,0,0,0,0
-0.018886549662659104,-0.03664581423170987,-0.013414044674531226,0,0,0,0
-0.0378075446626591,-0.0007667179317098717,0.012988869725468775,0,0,0,0
-0.0378075446626591,-0.0007667179317098717,0.012988869725468775,0,0,0,0
-0.031778510662659104,0.014548133768290129,0.006457952725468776,0,0,0,0
-0.007176192462659105,-0.05358230423170987,-0.007774336674531225,0,0,0,0
-0.007141574062659106,-0.07713003423170987,-0.009048779374531225,0,0,0,0
-0.027105887662659103,-0.028397920231709874,-0.00037096327453122607,0,0,0,0
-0.027105887662659103,-0.028397920231709874,-0.00037096327453122607,0,0,0,0
0.007311264837340895,0.06064168576829013,0.011577598725468773,0,0,0,0
0.007311264837340895,0.06064168576829013,0.011577598725468773,0,0,0,0
0.0333512453373409,0.025687544768290126,-0.015969570274531227,0,0,0,0
0.03889018733734089,-0.004267361231709871,-0.017592080274531227,0,0,0,0
0.03889018733734089,-0.004267361231709871,-0.017592080274531227,0,0,0,0
-0.016876109662659105,-0.0070320932317098715,-0.028953726274531227,0,0,0,0
-0.021064360662659105,-0.013730010231709869,-0.007996352054531225,0,0,0,0
-0.021064360662659105,-0.013730010231709869,-0.007996352054531225,0,0,0,0
-0.033621962662659106,-0.025570554231709876,0.003801934725468776,0,0,0,0
-0.033621962662659106,-0.025570554231709876,0.003801934725468776,0,0,0,0
-0.033621962662659106,-0.025570554231709876,0.003801934725468776,0,0,0,0
0.036952797337340894,-0.05664423023170987,0.022948769725468773,0,0,0,0
0.0603034153373409,-0.013591801231709869,0.028103439725468773,0,0,0,0
0.0603034153373409,-0.013591801231709869,0.028103439725468773,0,0,0,0
-0.031565554662659104,0.029639789768290126,0.008610979725468773,0,0,0,0
-0.0810552446626591,-0.013627281231709873,0.001349048225468775,0,0,0,0
-0.10555551466265911,-0.04045333223170987,-0.040014990274531224,0,0,0,0
0.06291162233734089,0.06028344076829013,-0.02386447927453123,0,0,0,0
0.06291162233734089,0.06028344076829013,-0.02386447927453123,0,0,0,0
0.05015718133734089,-0.0037139649317098717,-0.04844007027453122,0,0,0,0
-0.021260626662659106,-0.04098293723170987,-0.008934207274531225,0,0,0,0
-0.07266834466265912,0.004375672768290128,0.0005449817254687744,0,0,0,0
-0.07266834466265912,0.004375672768290128,0.0005449817254687744,0,0,0,0
-0.044746668662659105,0.04185302276829013,0.017605069725468773,0,0,0,0
-0.07807033866265911,0.057086215768290136,0.03263185472546878,0,0,0,0
0.053250045337340894,-0.10406488423170987,0.006218115725468774,0,0,0,0
-0.019519408662659107,-0.02884721123170987,0.019962505725468774,0,0,0,0
-0.029178984662659106,0.12927034576829013,0.035025289725468776,0,0,0,0
-0.029178984662659106,0.12927034576829013,0.035025289725468776,0,0,0,0
-0.029178984662659106,0.12927034576829013,0.035025289725468776,0,0,0,0
0.004766480337340894,0.015429623768290128,0.0020128887254687736,0,0,0,0
0.024133030337340895,-0.05993155823170987,-0.042750664274531225,0,0,0,0
0.0458471453373409,-0.07655764423170987,-0.04687779727453122,0,0,0,0
0.010392205337340893,-0.021702658231709873,-0.027966816274531226,0,0,0,0
-0.0773105446626591,0.054888155768290134,-0.010575433074531225,0,0,0,0
-0.0773105446626591,0.054888155768290134,-0.010575433074531225,0,0,0,0
-0.11613424466265912,0.08071078076829014,0.018262069725468774,0,0,0,0
0.033782785337340894,-0.05335507923170987,-0.015794046274531227,0,0,0,0
0.10767222533734089,-0.09157491423170987,-0.023207469274531226,0,0,0,0
0.1003887353373409,-0.055057174231709874,-0.016938777274531226,0,0,0,0
-0.1132208646626591,0.06566936976829013,0.009717719725468775,0,0,0,0
-0.15769193466265913,0.06977537576829014,0.013385645725468773,0,0,0,0
-0.15769193466265913,0.06977537576829014,0.013385645725468773,0,0,0,0
-0.1108068346626591,0.019427226768290125,0.003990737725468776,0,0,0,0
-0.0025019484626591054,-0.009757688231709872,-0.009861727074531226,0,0,0,0
0.1049349953373409,-0.05063012423170987,-0.025693900274531226,0,0,0,0
0.03923627533734089,-0.03075985223170987,0.005754534725468775,0,0,0,0
0.03923627533734089,-0.03075985223170987,0.005754534725468775,0,0,0,0
0.03923627533734089,-0.03075985223170987,0.005754534725468775,0,0,0,0
0.03923627533734089,-0.03075985223170987,0.005754534725468775,0,0,0,0
0.03923627533734089,-0.03075985223170987,0.005754534725468775,0,0,0,0
0.07392026533734089,-0.021092036231709875,0.009075836725468772,0,0,0,0
0.07392026533734089,-0.021092036231709875,0.009075836725468772,0,0,0,0
0.07392026533734089,-0.021092036231709875,0.009075836725468772,0,0,0,0
-0.018230421662659105,0.050597587768290125,0.022979109725468776,0,0,0,0
-0.0473759486626591,0.01634665076829013,0.020031182725468773,0,0,0,0
-0.017053111662659107,-0.026538407231709867,0.0028190657254687753,0,0,0,0
0.0503173053373409,-0.032699766231709865,-0.024262352274531225,0,0,0,0
0.0503173053373409,-0.032699766231709865,-0.024262352274531225,0,0,0,0
0.07215072533734089,-0.02162325023170987,-0.028583379274531227,0,0,0,0
0.020041195337340896,-0.010026365231709872,-0.019182868274531226,0,0,0,0
-0.05378397266265911,-0.021262746231709873,-0.00048406877453122544,0,0,0,0
-0.06723078066265911,-0.004582592231709872,0.03328153372546878,0,0,0,0
-0.030908282662659103,0.01561582176829013,0.029601447725468775,0,0,0,0
0.040419499337340896,0.016642241768290128,0.009783343725468775,0,0,0,0
0.10060922533734089,-0.0022321458317098716,-0.021573145274531226,0,0,0,0
0.031084458337340894,-0.021068072231709874,-0.04180987627453122,0,0,0,0
0.031084458337340894,-0.021068072231709874,-0.04180987627453122,0,0,0,0
-0.059512694662659106,-0.04991218423170987,-0.08252305527453123,0,0,0,0
-0.09840067466265912,-0.041313189231709874,-0.05121935027453122,0,0,0,0
-0.09391525466265911,0.010201806268290129,0.020458881725468774,0,0,0,0
-0.036456091662659104,0.058881955768290126,0.03743042172546878,0,0,0,0
0.0510567853373409,0.030886602768290132,0.024549249725468774,0,0,0,0
0.0510567853373409,0.030886602768290132,0.024549249725468774,0,0,0,0
0.08245813033734088,-0.07451617123170988,-0.027590985274531226,0,0,0,0
-0.0034505683326591058,-0.04935116423170987,-0.005874474374531225,0,0,0,0
-0.0608536546626591,0.016939121768290127,0.006258396725468776,0,0,0,0
-0.0608536546626591,0.016939121768290127,0.006258396725468776,0,0,0,0
-0.08648584466265911,0.04459626976829013,-0.006966586474531225,0,0,0,0
-0.07503526966265911,0.03287371576829013,-0.024729569274531227,0,0,0,0
-0.025562556662659105,-0.0040705262317098714,-0.05264796727453123,0,0,0,0
0.043659131337340895,-0.04060963023170987,-0.013222320274531225,0,0,0,0
0.043659131337340895,-0.04060963023170987,-0.013222320274531225,0,0,0,0
0.0851920293373409,-0.047418027231709875,-0.006065078074531225,0,0,0,0
0.09181014533734089,-0.021396893231709874,0.0006975457254687753,0,0,0,0
-0.06308096466265911,0.044849720768290136,0.03681333472546878,0,0,0,0
-0.06308096466265911,0.044849720768290136,0.03681333472546878,0,0,0,0
0.03586112533734089,-0.06446472923170987,-0.012732203274531225,0,0,0,0
0.03586112533734089,-0.06446472923170987,-0.012732203274531225,0,0,0,0
0.03586112533734089,-0.06446472923170987,-0.012732203274531225,0,0,0,0
0.07912360833734089,-0.01609098523170987,-0.017103894274531226,0,0,0,0
0.0572327753373409,0.02767930076829013,0.0021929187254687748,0,0,0,0
0.021884075337340894,-0.03200470723170987,5.7725725468774254e-05,0,0,0,0
0.021884075337340894,-0.03200470723170987,5.7725725468774254e-05,0,0,0,0
0.005339257337340894,-0.02355132623170987,0.003857128325468774,0,0,0,0
-0.030118639662659107,0.037843435768290135,0.01768474972546877,0,0,0,0
-0.033949931662659104,0.05720604576829014,0.024915747725468774,0,0,0,0
-0.033949931662659104,0.05720604576829014,0.024915747725468774,0,0,0,0
0.003068940337340894,-0.01286419023170987,0.008851389725468773,0,0,0,0
0.003068940337340894,-0.01286419023170987,0.008851389725468773,0,0,0,0
0.041245095337340894,-0.09773270423170986,-0.012435908674531225,0,0,0,0
0.016675869337340894,-0.04216706123170987,0.001888386725468775,0,0,0,0
0.016675869337340894,-0.04216706123170987,0.001888386725468775,0,0,0,0
-0.023865015662659105,0.07082280576829013,0.05232304972546878,0,0,0,0
-0.023865015662659105,0.07082280576829013,0.05232304972546878,0,0,0,0
-0.03246572766265911,0.021986060768290128,0.03469046772546878,0,0,0,0
0.0441431203373409,-0.05123133023170987,-0.017514641274531225,0,0,0,0
0.1296702553373409,-0.10711311423170987,-0.016595657274531224,0,0,0,0
0.12013065533734088,-0.07489730423170987,-0.010133929574531225,0,0,0,0
-0.0981077986626591,0.04891343576829013,0.050248054725468776,0,0,0,0
-0.09273765866265912,0.02644786176829013,0.07024302372546877,0,0,0,0
0.03751088833734089,-0.030843877231709865,0.037853614725468776,0,0,0,0
0.03751088833734089,-0.030843877231709865,0.037853614725468776,0,0,0,0
0.0423285653373409,0.03168684276829013,0.04921981572546878,0,0,0,0
0.0423285653373409,0.03168684276829013,0.04921981572546878,0,0,0,0
-0.024947054662659104,0.06033207176829013,0.06442317972546877,0,0,0,0
-0.0331784086626591,-0.02112839423170987,0.04021426972546878,0,0,0,0
0.030957525337340898,-0.043851211231709875,0.031448309725468776,0,0,0,0
0.030957525337340898,-0.043851211231709875,0.031448309725468776,0,0,0,0
0.030957525337340898,-0.043851211231709875,0.031448309725468776,0,0,0,0
0.003139607337340895,0.023956246768290126,0.02416650472546877,0,0,0,0
0.003139607337340895,0.023956246768290126,0.02416650472546877,0,0,0,0
-0.08790939466265911,0.018993452768290127,0.031008974725468774,0,0,0,0
0.008559815337340893,-0.02264981823170987,0.034098009725468774,0,0,0,0
0.008559815337340893,-0.02264981823170987,0.034098009725468774,0,0,0,0
0.009780423337340895,-0.04756982623170987,0.059037916725468785,0,0,0,0
0.001218144337340894,-0.020254647231709867,0.06889225972546878,0,0,0,0
0.001218144337340894,-0.020254647231709867,0.06889225972546878,0,0,0,0
-0.037968047662659106,0.01140492576829013,0.04613967972546878,0,0,0,0
-0.037968047662659106,0.01140492576829013,0.04613967972546878,0,0,0,0
-0.033956702662659106,-0.03488403423170987,0.055657979725468786,0,0,0,0
-0.033956702662659106,-0.03488403423170987,0.055657979725468786,0,0,0,0
-0.033502276662659106,-0.035877194231709875,0.061366824725468776,0,0,0,0
0.04332791933734089,-0.020431497231709873,0.044707419725468774,0,0,0,0
0.09663402533734089,-0.008608635831709871,0.035514007725468776,0,0,0,0
0.0614586053373409,-0.003800710531709871,0.020954791725468772,0,0,0,0
0.0614586053373409,-0.003800710531709871,0.020954791725468772,0,0,0,0
0.0614586053373409,-0.003800710531709871,0.020954791725468772,0,0,0,0
-0.013820059662659107,0.006589168768290129,0.01818877972546877,0,0,0,0
-0.0599846676626591,-0.0007328178317098713,0.019936839725468773,0,0,0,0
-0.09086311466265912,0.017773467768290127,0.031874999725468776,0,0,0,0
0.1119673853373409,0.01428375576829013,0.006713036725468775,0,0,0,0
0.1388715953373409,-0.03509855423170987,0.004794923725468774,0,0,0,0
0.1388715953373409,-0.03509855423170987,0.004794923725468774,0,0,0,0
0.1388715953373409,-0.03509855423170987,0.004794923725468774,0,0,0,0
-0.0863493746626591,-0.03587038423170987,0.024210397725468773,0,0,0,0
-0.0863493746626591,-0.03587038423170987,0.024210397725468773,0,0,0,0
-0.03032158166265911,-0.042168724231709864,0.023602389725468773,0,0,0,0
0.1034619453373409,0.0038742695682901286,0.021734426725468773,0,0,0,0
0.0537352723373409,0.04359957576829013,0.03991475572546878,0,0,0,0
-0.029333479662659104,0.07669920976829013,0.05413687672546878,0,0,0,0
-0.06764896466265911,0.07958227576829013,0.07431036972546877,0,0,0,0
-0.06764896466265911,0.07958227576829013,0.07431036972546877,0,0,0,0
-0.0006508666626591055,-0.004673370231709871,0.03804731772546878,0,0,0,0
0.07496825833734089,-0.04994108423170987,0.014027504725468775,0,0,0,0
0.10865260533734089,-0.060234694231709865,0.008204380725468776,0,0,0,0
-0.08272474466265911,0.010908609768290127,0.02024845372546877,0,0,0,0
-0.08272474466265911,0.010908609768290127,0.02024845372546877,0,0,0,0
-0.047822077662659106,0.01336161276829013,0.021527329725468773,0,0,0,0
-0.047822077662659106,0.01336161276829013,0.021527329725468773,0,0,0,0
0.0470841553373409,0.018708440768290126,-0.005239088874531225,0,0,0,0
0.0470841553373409,0.018708440768290126,-0.005239088874531225,0,0,0,0
-0.05731819466265911,-0.012458732231709872,0.014657972725468774,0,0,0,0
-0.05731819466265911,-0.012458732231709872,0.014657972725468774,0,0,0,0
-0.07323339466265912,0.03395230176829013,0.032905809725468776,0,0,0,0
-0.07323339466265912,0.03395230176829013,0.032905809725468776,0,0,0,0
0.0024233978373408953,0.06171580576829013,0.014877627725468773,0,0,0,0
0.021917073337340894,0.03409171176829013,0.012579880725468773,0,0,0,0
-0.017544634662659105,0.022839575768290127,0.009372029725468772,0,0,0,0
-0.017544634662659105,0.022839575768290127,0.009372029725468772,0,0,0,0
-0.010071356862659106,0.01908527976829013,0.018570296725468775,0,0,0,0
-0.017465193662659105,0.04040542576829013,0.004566900725468775,0,0,0,0
-0.017465193662659105,0.04040542576829013,0.004566900725468775,0,0,0,0
-0.006499560462659105,-0.0024324025317098708,0.008082924725468774,0,0,0,0
-0.006499560462659105,-0.0024324025317098708,0.008082924725468774,0,0,0,0
-0.015293868162659107,-0.03954708423170987,0.013004772725468777,0,0,0,0
-0.07137659466265911,-0.032778966231709866,0.009986184725468774,0,0,0,0
-0.08277405066265911,0.017730885768290128,0.020342741725468776,0,0,0,0
0.04459068033734089,0.01460083176829013,0.03837436972546878,0,0,0,0
0.08193141533734088,0.010064238768290129,0.023806087725468775,0,0,0,0
0.08210879933734089,-0.03536059423170987,0.034900489725468775,0,0,0,0
0.08210879933734089,-0.03536059423170987,0.034900489725468775,0,0,0,0
0.0012164276373408944,-0.002326836731709872,0.025548724725468774,0,0,0,0
0.0012164276373408944,-0.002326836731709872,0.025548724725468774,0,0,0,0
-0.1046682246626591,-0.021943890231709874,0.020058839725468774,0,0,0,0
-0.15427034466265913,-0.060457020231709874,0.009877697725468773,0,0,0,0
-0.1538939346626591,-0.07875319123170986,0.005637334725468775,0,0,0,0
-0.1538939346626591,-0.07875319123170986,0.005637334725468775,0,0,0,0
-0.042511256662659105,-0.006595104231709871,0.0006822867254687734,0,0,0,0
0.0339385193373409,0.039070435768290133,0.004736588725468774,0,0,0,0
0.10167342533734089,0.05218745776829013,-0.029808469274531225,0,0,0,0
0.07007695833734089,-0.0033129508317098714,-0.06412032427453122,0,0,0,0
0.07007695833734089,-0.0033129508317098714,-0.06412032427453122,0,0,0,0
0.07007695833734089,-0.0033129508317098714,-0.06412032427453122,0,0,0,0
-0.09952934466265911,-0.06985864023170987,-0.04825592827453122,0,0,0,0
-0.09952934466265911,-0.06985864023170987,-0.04825592827453122,0,0,0,0
-0.15332620466265912,-0.061984514231709864,0.004357991725468775,0,0,0,0
0.040333191337340896,-0.03933210423170987,0.027559539725468773,0,0,0,0
0.07048942533734089,0.008027792468290128,0.07711079972546878,0,0,0,0
0.07048942533734089,0.008027792468290128,0.07711079972546878,0,0,0,0
-0.009078295662659105,0.03246797076829013,0.12788962972546877,0,0,0,0
-0.009078295662659105,0.03246797076829013,0.12788962972546877,0,0,0,0
-0.0597436746626591,0.04021437176829013,0.13268391972546878,0,0,0,0
0.07150308533734089,-0.03239741923170987,0.005252603725468776,0,0,0,0
0.07150308533734089,-0.03239741923170987,0.005252603725468776,0,0,0,0
-0.1141925646626591,-0.02348445023170987,-0.0012279287745312253,0,0,0,0
-0.09429195466265912,-0.017406892231709874,-0.04852305827453122,0,0,0,0
-0.005567916062659106,0.013195875768290129,-0.09186916027453122,0,0,0,0
0.12478438533734088,0.05147586176829013,-0.06664318027453123,0,0,0,0
0.12478438533734088,0.05147586176829013,-0.06664318027453123,0,0,0,0
-0.031187136662659102,0.027339607768290128,-0.002959109874531225,0,0,0,0
-0.0456108886626591,-0.017620968231709867,0.029291651725468774,0,0,0,0
0.08443652533734089,0.04917456876829013,0.041931296725468775,0,0,0,0
0.055975265337340895,0.014044687768290128,0.03537816272546878,0,0,0,0
-0.04174183166265911,-0.04946218123170987,0.04385197572546878,0,0,0,0
-0.0685007886626591,-0.019201490231709868,0.04195222372546877,0,0,0,0
-0.0576420646626591,0.014201075268290128,0.03231199272546877,0,0,0,0
0.0077274483373408935,0.03186261076829013,0.009549717725468775,0,0,0,0
0.05071803533734089,0.042607960768290126,-0.030318184274531226,0,0,0,0
0.03418943133734089,0.047152212768290125,-0.040212376274531225,0,0,0,0
0.03418943133734089,0.047152212768290125,-0.040212376274531225,0,0,0,0
0.010230080337340894,0.021949002768290128,-0.04645993227453122,0,0,0,0
-0.03355825766265911,0.018436169768290128,-0.031033058274531226,0,0,0,0
-0.03355825766265911,0.018436169768290128,-0.031033058274531226,0,0,0,0
-0.03355825766265911,0.018436169768290128,-0.031033058274531226,0,0,0,0
0.0063779993373408944,-0.016003834231709875,-0.016791708774531226,0,0,0,0
-0.016622527662659106,-0.010541972231709872,-0.008439935774531225,0,0,0,0
-0.015915091662659104,-0.0024152722317098713,0.007915161725468772,0,0,0,0
-0.015915091662659104,-0.0024152722317098713,0.007915161725468772,0,0,0,0
-0.003211959022659106,0.02386970876829013,0.009630672725468772,0,0,0,0
0.014632050337340895,0.03223927376829013,0.017722271725468773,0,0,0,0
-0.0433543996626591,0.062325579768290125,0.0001464527254687745,0,0,0,0
-0.0716554476626591,0.041380962768290126,0.013558195725468774,0,0,0,0
-0.0619690746626591,0.010772705768290128,0.010435150725468773,0,0,0,0
-0.035813887662659104,-0.006855949231709872,-0.013930638274531226,0,0,0,0
0.019338433337340893,-0.005247836831709871,-0.033329756274531226,0,0,0,0
0.019338433337340893,-0.005247836831709871,-0.033329756274531226,0,0,0,0
0.019338433337340893,-0.005247836831709871,-0.033329756274531226,0,0,0,0
0.0523185893373409,0.01914279776829013,-0.04218246027453122,0,0,0,0
-0.0831941446626591,-0.009481298231709871,-0.05691959427453123,0,0,0,0
-0.0496035416626591,-0.035325874231709874,-0.04933104627453123,0,0,0,0
0.03853456233734089,0.03224090976829013,-0.018360789274531227,0,0,0,0
0.06524745533734089,0.05051969976829013,0.0017232047254687752,0,0,0,0
0.057198255337340895,0.03278431376829013,0.011779676725468775,0,0,0,0
0.002901188737340895,0.027694585768290127,0.038086543725468776,0,0,0,0
0.002901188737340895,0.027694585768290127,0.038086543725468776,0,0,0,0
-0.025778563662659106,0.010003593768290128,0.025032529725468777,0,0,0,0
0.004988781837340895,0.024714081768290132,0.019716481725468773,0,0,0,0
0.004988781837340895,0.024714081768290132,0.019716481725468773,0,0,0,0
-0.017024500662659106,0.019424098768290127,-0.016706474274531227,0,0,0,0
-0.04322136266265911,0.06277034576829013,-0.03796893027453123,0,0,0,0
-0.04322136266265911,0.06277034576829013,-0.03796893027453123,0,0,0,0
-0.023517115662659103,0.07834475576829013,-0.07271250027453123,0,0,0,0
-0.023517115662659103,0.07834475576829013,-0.07271250027453123,0,0,0,0
0.013456360337340895,0.05010848976829013,-0.08527505027453122,0,0,0,0
0.020320622337340895,0.013197332768290129,-0.13545889027453123,0,0,0,0
0.004076020337340894,0.007145923768290128,-0.09577423027453122,0,0,0,0
-0.032075388662659104,0.0007979576682901287,-0.05561576627453122,0,0,0,0
-0.026759989662659106,0.005236262568290129,0.007414929725468773,0,0,0,0
-0.026759989662659106,0.005236262568290129,0.007414929725468773,0,0,0,0
-0.0012051421626591056,0.008391833768290127,0.007550064725468773,0,0,0,0
-0.0012051421626591056,0.008391833768290127,0.007550064725468773,0,0,0,0
0.049978365337340895,0.02571019476829013,-0.0010831432745312258,0,0,0,0
0.04312917533734089,0.03795265576829013,0.025787447725468777,0,0,0,0
-0.021563609662659106,0.05024520776829013,0.0072807237254687756,0,0,0,0
-0.021563609662659106,0.05024520776829013,0.0072807237254687756,0,0,0,0
-0.07536772066265911,0.059162405768290134,0.023117814725468776,0,0,0,0
-0.046112139662659105,0.04412935376829013,-0.028934796274531226,0,0,0,0
-0.046112139662659105,0.04412935376829013,-0.028934796274531226,0,0,0,0
0.032273118337340895,0.05364569576829013,-0.052124770274531225,0,0,0,0
0.032273118337340895,0.05364569576829013,-0.052124770274531225,0,0,0,0
0.06521264533734089,0.03268222276829013,-0.09277995427453123,0,0,0,0
0.04949065833734089,0.011166967768290128,-0.09089463527453123,0,0,0,0
-0.08916834466265912,0.07946878576829013,-0.021802921274531224,0,0,0,0
-0.0971078716626591,0.04628255976829013,-0.0013889622745312255,0,0,0,0
-0.0971078716626591,0.04628255976829013,-0.0013889622745312255,0,0,0,0
-0.03450887966265911,-0.0030160182317098714,0.009301929725468776,0,0,0,0
0.036109655337340896,-0.013223758231709872,0.0037673397254687742,0,0,0,0
0.06535045533734088,0.04592798976829013,-0.023567708274531227,0,0,0,0
0.027027909337340894,0.06567214576829013,-0.007159419394531226,0,0,0,0
0.027027909337340894,0.06567214576829013,-0.007159419394531226,0,0,0,0
-0.11890085466265912,0.06362702576829013,-0.019773228274531224,0,0,0,0
-0.11746271466265912,0.030714695768290133,-0.05212114627453122,0,0,0,0
-0.024716647662659103,0.01095247776829013,-0.06540726027453123,0,0,0,0
-0.024716647662659103,0.01095247776829013,-0.06540726027453123,0,0,0,0
-0.024716647662659103,0.01095247776829013,-0.06540726027453123,0,0,0,0
-0.024716647662659103,0.01095247776829013,-0.06540726027453123,0,0,0,0
0.11039506533734089,0.03623652776829013,-0.07393830527453123,0,0,0,0
-0.08464258466265911,0.03003708776829013,0.014571635725468775,0,0,0,0
-0.047151834662659105,0.053913845768290135,0.007117347725468774,0,0,0,0
0.045374409337340896,0.035874122768290134,0.009034411725468774,0,0,0,0
0.045374409337340896,0.035874122768290134,0.009034411725468774,0,0,0,0
0.10088616533734089,0.0016275414182901286,-0.008632190574531226,0,0,0,0
0.10088616533734089,0.0016275414182901286,-0.008632190574531226,0,0,0,0
-0.018125517662659105,-0.009867024231709872,-0.010297317874531225,0,0,0,0
-0.018125517662659105,-0.009867024231709872,-0.010297317874531225,0,0,0,0
-0.05645530966265911,0.03402338076829013,0.010862032725468772,0,0,0,0
-0.041445144662659104,0.07135039576829012,0.007151595725468775,0,0,0,0
0.0800504853373409,0.03520119276829013,-0.034958704274531224,0,0,0,0
0.10370227533734089,-0.009724020231709872,-0.041878220274531225,0,0,0,0
0.04228936833734089,-0.019425447231709872,-0.051221570274531225,0,0,0,0
-0.06511371866265911,0.01878621076829013,-0.03306549327453122,0,0,0,0
-0.06511371866265911,0.01878621076829013,-0.03306549327453122,0,0,0,0
-0.07648828766265911,0.04400981976829013,-0.003727002474531225,0,0,0,0
-0.07648828766265911,0.04400981976829013,-0.003727002474531225,0,0,0,0
0.0953066053373409,0.020521393768290132,-0.04048114527453122,0,0,0,0
0.0953066053373409,0.020521393768290132,-0.04048114527453122,0,0,0,0
-0.006640895062659106,0.005357579568290129,-0.018063207274531225,0,0,0,0
-0.006640895062659106,0.005357579568290129,-0.018063207274531225,0,0,0,0
-0.007367690262659106,0.02967880576829013,0.017255656725468773,0,0,0,0
-0.031563361662659106,0.031100595768290128,0.017489044725468774,0,0,0,0
-0.031563361662659106,0.031100595768290128,0.017489044725468774,0,0,0,0
0.025468175337340894,0.010161795168290128,-0.00016930827453122497,0,0,0,0
-0.0368756146626591,-0.01384858123170987,0.002365533725468774,0,0,0,0
0.032874695337340894,0.03797357976829013,0.012715367725468774,0,0,0,0
0.032874695337340894,0.03797357976829013,0.012715367725468774,0,0,0,0
0.03050834333734089,0.05484820076829013,-0.012506218274531225,0,0,0,0
-0.023202498662659107,0.018819323768290132,-0.028428192274531226,0,0,0,0
-0.036790354662659105,0.011826862768290128,-0.035342380274531224,0,0,0,0
-0.029930479662659104,0.04468313576829013,-0.0010835482745312252,0,0,0,0
0.023318402337340893,0.01992146676829013,-0.006190355174531225,0,0,0,0
0.008138958837340896,-0.013299687231709871,0.012751607725468773,0,0,0,0
0.008138958837340896,-0.013299687231709871,0.012751607725468773,0,0,0,0
-0.07187002466265911,0.029114157768290128,0.007986478725468774,0,0,0,0
-0.08553083466265912,0.03190478176829013,0.020074622725468776,0,0,0,0
0.08125087533734089,-0.04380562223170987,-0.023205192274531227,0,0,0,0
0.08125087533734089,-0.04380562223170987,-0.023205192274531227,0,0,0,0
0.09958278533734088,-0.010345894231709873,-0.016737468274531226,0,0,0,0
0.0479133753373409,0.04018099976829013,0.005239335725468776,0,0,0,0
-0.06745899466265912,0.08487681576829013,0.013150958725468773,0,0,0,0
-0.1383704046626591,0.07945534576829012,0.02495444272546878,0,0,0,0
0.06772557933734089,-0.05001569923170987,-0.04130367827453122,0,0,0,0
0.07802573833734089,-0.035098087231709874,-0.026419360274531224,0,0,0,0
0.06021739533734089,-0.007688218231709872,-0.030789251274531224,0,0,0,0
0.03974496533734089,0.004068622468290128,-0.010220678274531225,0,0,0,0
0.03974496533734089,0.004068622468290128,-0.010220678274531225,0,0,0,0
-0.0566503346626591,-0.034772801231709866,-0.011822743774531224,0,0,0,0
-0.05639322466265911,0.007806230068290129,0.004464547325468775,0,0,0,0
-0.012949355262659105,0.043624505768290134,-0.0021206692745312254,0,0,0,0
-0.012949355262659105,0.043624505768290134,-0.0021206692745312254,0,0,0,0
0.11120845533734089,-0.035515141231709874,-0.003539426674531225,0,0,0,0
0.11120845533734089,-0.035515141231709874,-0.003539426674531225,0,0,0,0
0.013126103337340895,-0.007326458231709873,0.029450169725468777,0,0,0,0
0.013126103337340895,-0.007326458231709873,0.029450169725468777,0,0,0,0
-0.032080634662659105,-0.019620443231709868,0.03552400272546878,0,0,0,0
-0.030456526662659106,-0.010773208231709871,-0.010354883974531225,0,0,0,0
-0.030456526662659106,-0.010773208231709871,-0.010354883974531225,0,0,0,0
0.04758683833734089,-0.03566527923170987,-0.027252598274531224,0,0,0,0
0.044482533337340896,-0.019527095231709875,-0.022623594274531228,0,0,0,0
-0.03592880466265911,0.043735361768290126,-0.019560285274531224,0,0,0,0
0.022520749337340898,0.03038514276829013,0.0004910397254687749,0,0,0,0
0.08649799033734089,0.031007305768290132,-0.023337812274531227,0,0,0,0
0.08649799033734089,0.031007305768290132,-0.023337812274531227,0,0,0,0
0.0363783053373409,0.023742868768290126,-0.026241322274531225,0,0,0,0
0.0363783053373409,0.023742868768290126,-0.026241322274531225,0,0,0,0
-0.07009533466265912,-0.057627514231709864,-0.028031237274531225,0,0,0,0
-0.04781549766265911,-0.056439154231709865,-0.011881013274531225,0,0,0,0
0.09173900533734089,0.012238775768290128,-0.0029312922745312253,0,0,0,0
0.0730528993373409,0.05053627276829013,0.02246425572546877,0,0,0,0
-0.0037359076926591055,0.061176735768290136,0.009966484725468776,0,0,0,0
-0.0037359076926591055,0.061176735768290136,0.009966484725468776,0,0,0,0
-0.049791034662659106,0.02363934876829013,0.016274289725468776,0,0,0,0
-0.049791034662659106,0.02363934876829013,0.016274289725468776,0,0,0,0
-0.021220381662659105,-0.0023309867317098717,-0.016735299274531226,0,0,0,0
0.09169561133734089,-0.01880883523170987,-0.022673042274531225,0,0,0,0
-0.041347104662659104,-0.04349567823170987,-0.03317316327453122,0,0,0,0
-0.041347104662659104,-0.04349567823170987,-0.03317316327453122,0,0,0,0
-0.021733267662659105,0.04579085776829013,0.000308708725468774,0,0,0,0
-0.021733267662659105,0.04579085776829013,0.000308708725468774,0,0,0,0
0.015089623337340895,0.03662485576829013,-0.011814148774531224,0,0,0,0
0.027332512337340895,0.012995380768290129,-0.03781275327453122,0,0,0,0
-0.005019934762659105,0.01699415576829013,-0.009059055174531226,0,0,0,0
-0.005019934762659105,0.01699415576829013,-0.009059055174531226,0,0,0,0
-0.005019934762659105,0.01699415576829013,-0.009059055174531226,0,0,0,0
-0.06291645466265912,-0.030788758231709873,0.0005196137254687748,0,0,0,0
-0.06291645466265912,-0.030788758231709873,0.0005196137254687748,0,0,0,0
0.032229153337340895,-0.03175801023170987,-0.0004937127745312251,0,0,0,0
0.07804662533734089,0.020284137768290127,0.0016268657254687744,0,0,0,0
0.07804662533734089,0.020284137768290127,0.0016268657254687744,0,0,0,0
0.07804662533734089,0.020284137768290127,0.0016268657254687744,0,0,0,0
-0.020181639662659106,0.007930644268290129,-0.011869855274531226,0,0,0,0
-0.08613651466265912,0.0035259802682901286,-0.011475010274531225,0,0,0,0
-0.049690039662659106,0.04026099176829013,-0.0028547719745312256,0,0,0,0
0.011074273337340897,0.07089374076829014,0.016861502725468776,0,0,0,0
0.011074273337340897,0.07089374076829014,0.016861502725468776,0,0,0,0
0.0345742383373409,0.03916454076829013,0.010847644725468772,0,0,0,0
0.0345742383373409,0.03916454076829013,0.010847644725468772,0,0,0,0
0.012914959337340895,-0.04275289723170987,-0.016623421274531223,0,0,0,0
-0.0550340496626591,0.07042623576829013,0.019304159725468777,0,0,0,0
-0.0550340496626591,0.07042623576829013,0.019304159725468777,0,0,0,0
-0.025422461662659105,0.08836465576829013,0.012121145725468775,0,0,0,0
0.041582695337340894,-0.04761916023170987,-0.11131625027453124,0,0,0,0
0.041728035337340895,-0.04684154423170987,-0.11032975027453124,0,0,0,0
-0.027517588662659104,0.08648261576829014,0.007853786725468773,0,0,0,0
-0.08349865466265911,-0.05031322423170986,0.009435157725468775,0,0,0,0
-0.09461715966265911,0.07338736576829014,0.05392136372546878,0,0,0,0
0.2309765053373409,-0.16112070423170988,0.009405056725468774,0,0,0,0
0.2309765053373409,-0.16112070423170988,0.009405056725468774,0,0,0,0
0.1538790853373409,-0.1951021242317099,-0.037752183274531226,0,0,0,0
-0.1676511646626591,0.03897928076829013,0.03223630672546878,0,0,0,0
-0.1676511646626591,0.03897928076829013,0.03223630672546878,0,0,0,0
0.33799630533734093,-0.1279112842317099,-0.024982197274531225,0,0,0,0
0.2195430953373409,-0.004238750231709872,-0.021041055274531224,0,0,0,0
0.2195430953373409,-0.004238750231709872,-0.021041055274531224,0,0,0,0
0.2195430953373409,-0.004238750231709872,-0.021041055274531224,0,0,0,0
0.0402150313373409,0.12140499576829013,-0.004805965774531225,0,0,0,0
0.0402150313373409,0.12140499576829013,-0.004805965774531225,0,0,0,0
-0.2211407946626591,-0.032395726231709866,0.024377052725468775,0,0,0,0
0.17100297533734088,-0.0013377967317098715,-0.017059071274531226,0,0,0,0
0.17100297533734088,-0.0013377967317098715,-0.017059071274531226,0,0,0,0
0.0353451893373409,0.09503843276829013,-0.032611675274531224,0,0,0,0
0.0353451893373409,0.09503843276829013,-0.032611675274531224,0,0,0,0
-0.020561202662659105,0.019232668768290127,-0.004744179574531226,0,0,0,0
-0.020561202662659105,0.019232668768290127,-0.004744179574531226,0,0,0,0
-0.1273412546626591,0.10906003576829014,0.0029786392254687747,0,0,0,0
0.016098706337340896,0.09069628576829013,-0.006531937474531225,0,0,0,0
0.0576339853373409,-0.08157461823170988,-0.03385629227453123,0,0,0,0
0.0576339853373409,-0.08157461823170988,-0.03385629227453123,0,0,0,0
0.0576339853373409,-0.08157461823170988,-0.03385629227453123,0,0,0,0
-0.05158327466265911,0.07598913576829013,0.04229054972546878,0,0,0,0
-0.039464362662659104,0.10293984576829013,0.025354782725468778,0,0,0,0
-0.017981036662659104,0.03888759576829013,0.003181819725468775,0,0,0,0
0.0834306853373409,-0.09347186423170988,0.009512249725468776,0,0,0,0
0.0834306853373409,-0.09347186423170988,0.009512249725468776,0,0,0,0
0.0834306853373409,-0.09347186423170988,0.009512249725468776,0,0,0,0
0.021149745337340892,-0.018837329231709873,0.009798197725468773,0,0,0,0
0.021149745337340892,-0.018837329231709873,0.009798197725468773,0,0,0,0
-0.022644122662659104,0.009729364768290128,0.038271026725468775,0,0,0,0
-0.0352071596626591,0.0007681186682901285,0.016163353725468774,0,0,0,0
-0.0352071596626591,0.0007681186682901285,0.016163353725468774,0,0,0,0
0.0057812853373408945,0.005529897368290129,-0.0024609878745312248,0,0,0,0
0.04107991833734089,0.0036626125682901285,0.005466012725468774,0,0,0,0
0.04107991833734089,0.0036626125682901285,0.005466012725468774,0,0,0,0
-0.013797171662659105,-0.04117419123170987,-0.0014238552745312258,0,0,0,0
0.03858911233734089,-0.052257489231709864,-0.009715600274531225,0,0,0,0
0.0673670953373409,0.024871112768290127,0.014037446725468774,0,0,0,0
0.0673670953373409,0.024871112768290127,0.014037446725468774,0,0,0,0
0.031055085337340894,0.025537205768290126,0.019181935725468773,0,0,0,0
0.031055085337340894,0.025537205768290126,0.019181935725468773,0,0,0,0
-0.06507538166265911,0.010770310768290128,0.030880264725468776,0,0,0,0
-0.06507538166265911,0.010770310768290128,0.030880264725468776,0,0,0,0
0.0074481173373408946,0.01725336076829013,-0.012687881274531226,0,0,0,0
0.07925712533734089,-0.0021309349317098717,-0.032892413274531226,0,0,0,0
0.0752344293373409,-0.01900713423170987,-0.03978726427453123,0,0,0,0
0.0752344293373409,-0.01900713423170987,-0.03978726427453123,0,0,0,0
0.025888459337340897,-0.027003949231709873,-0.040060825274531225,0,0,0,0
-0.027336390662659107,-0.017560501231709873,-0.010821159274531224,0,0,0,0
-0.07704618466265911,0.040344721768290126,0.017128281725468774,0,0,0,0
0.009442917337340897,0.03264557576829013,0.023349169725468775,0,0,0,0
0.009442917337340897,0.03264557576829013,0.023349169725468775,0,0,0,0
0.015076176337340895,0.02265708976829013,0.009384934725468776,0,0,0,0
0.015076176337340895,0.02265708976829013,0.009384934725468776,0,0,0,0
0.000586239637340895,0.007451600268290129,0.003968708225468774,0,0,0,0
-0.03259199466265911,-0.013265463231709872,-0.012066896274531225,0,0,0,0
-0.03259199466265911,-0.013265463231709872,-0.012066896274531225,0,0,0,0
-0.047933371662659104,0.055007895768290134,-0.002122779274531225,0,0,0,0
0.07772123033734088,-0.09383517423170987,-0.031088288274531226,0,0,0,0
0.07772123033734088,-0.09383517423170987,-0.031088288274531226,0,0,0,0
0.004198853337340895,-0.12972564423170987,-0.037199755274531225,0,0,0,0
-0.07136095466265911,-0.11134212423170987,-0.024062975274531224,0,0,0,0
-0.09738710466265911,-0.03516296723170987,0.020510559725468773,0,0,0,0
-0.09738710466265911,-0.03516296723170987,0.020510559725468773,0,0,0,0
-0.08270109466265911,0.06069988076829014,0.06408461972546878,0,0,0,0
0.03405286533734089,0.05702194576829012,-0.005600793674531226,0,0,0,0
0.03405286533734089,0.05702194576829012,-0.005600793674531226,0,0,0,0
0.03405286533734089,0.05702194576829012,-0.005600793674531226,0,0,0,0
0.1125438853373409,-0.07933318423170986,-0.04574528527453122,0,0,0,0
-0.028491194662659106,-0.02086261023170987,-0.10760490427453123,0,0,0,0
-0.028491194662659106,-0.02086261023170987,-0.10760490427453123,0,0,0,0
-0.11516064466265911,0.06260848576829013,-0.033599742274531226,0,0,0,0
0.08587552533734089,-0.05540601423170987,-0.04954789427453122,0,0,0,0
0.08587552533734089,-0.05540601423170987,-0.04954789427453122,0,0,0,0
0.05647679933734089,-0.14200009423170987,-0.10927102027453123,0,0,0,0
0.05647679933734089,-0.14200009423170987,-0.10927102027453123,0,0,0,0
0.05647679933734089,-0.14200009423170987,-0.10927102027453123,0,0,0,0
-0.1200766446626591,0.08309341076829013,0.023885754725468774,0,0,0,0
-0.12006681466265912,0.08197110576829013,0.03545935572546878,0,0,0,0
0.1224560853373409,-0.00960539223170987,-0.026054556274531227,0,0,0,0
0.0962392053373409,-0.059741240231709875,-0.07325320027453122,0,0,0,0
0.019418065337340897,-0.07424302023170987,-0.10000372727453123,0,0,0,0
-0.0355585886626591,-0.018638096231709873,-0.006200464074531225,0,0,0,0
-0.10794552466265912,0.034206395768290127,-0.004776842974531225,0,0,0,0
-0.10350597466265912,0.036780512768290134,-0.014442916274531224,0,0,0,0
0.045984475337340895,-0.04916580423170987,-0.022869558274531226,0,0,0,0
0.045984475337340895,-0.04916580423170987,-0.022869558274531226,0,0,0,0
0.021044652337340895,-0.06387532923170987,-0.03941334027453122,0,0,0,0
-0.05411136966265911,0.08112003276829012,-0.010089273774531225,0,0,0,0
-0.1288188746626591,0.1531674457682901,-0.003644759974531225,0,0,0,0
0.0838765303373409,-0.06911541823170987,-0.009952504974531226,0,0,0,0
0.0838765303373409,-0.06911541823170987,-0.009952504974531226,0,0,0,0
-0.1076087746626591,-0.010736529231709873,0.039102904725468776,0,0,0,0
-0.1601080746626591,0.01540270576829013,0.02917071972546877,0,0,0,0
0.10247556533734088,-0.004294572231709872,-0.028144748274531225,0,0,0,0
0.10247556533734088,-0.004294572231709872,-0.028144748274531225,0,0,0,0
0.10247556533734088,-0.004294572231709872,-0.028144748274531225,0,0,0,0
-0.09127500866265911,0.014898437768290128,-0.00022365627453122504,0,0,0,0
-0.10650737466265911,0.008386835568290129,0.04547397372546878,0,0,0,0
-0.10650737466265911,0.008386835568290129,0.04547397372546878,0,0,0,0
-0.08838108466265912,0.016098724768290128,0.06250505972546877,0,0,0,0
-0.040448267662659104,0.0020896931082901287,0.013962976725468774,0,0,0,0
0.10944129533734089,-0.009868426231709871,0.0047394557254687745,0,0,0,0
0.10944129533734089,-0.009868426231709871,0.0047394557254687745,0,0,0,0
-0.08283870966265912,-0.03945385423170987,-0.11438992027453122,0,0,0,0
-0.08283870966265912,-0.03945385423170987,-0.11438992027453122,0,0,0,0
-0.09745710466265911,0.028980213768290124,-0.06570637027453123,0,0,0,0
0.013017861337340897,0.08588535276829014,0.018510667725468773,0,0,0,0
0.018222825337340896,0.014085339768290128,0.002429716225468775,0,0,0,0
0.018222825337340896,0.014085339768290128,0.002429716225468775,0,0,0,0
0.019938199337340895,-0.08380320023170987,0.014353553725468773,0,0,0,0
0.03927222933734089,0.06950675576829013,0.01753703772546877,0,0,0,0
0.05260144933734089,0.049167085768290125,-0.009665615874531226,0,0,0,0
0.006995121837340894,-0.059804397231709876,-0.06712459027453123,0,0,0,0
-0.09923637466265911,-0.1627039842317099,-0.15428248027453123,0,0,0,0
-0.017411597662659106,-0.03146774123170987,0.06941271272546877,0,0,0,0
0.07389995533734088,0.08706111576829013,0.07262576972546878,0,0,0,0
0.12231504533734089,0.11624962576829014,0.034355191725468776,0,0,0,0
0.12476054533734088,0.05964385576829013,0.03293298972546878,0,0,0,0
0.06617252033734089,-0.04525932923170987,0.029642431725468776,0,0,0,0
0.06617252033734089,-0.04525932923170987,0.029642431725468776,0,0,0,0
-0.025717337662659105,-0.09580097723170987,0.016748575725468774,0,0,0,0
-0.025717337662659105,-0.09580097723170987,0.016748575725468774,0,0,0,0
-0.11055515466265911,-0.04567603423170987,-0.12663318027453122,0,0,0,0
0.08429414533734089,0.10704931576829015,-0.013539071274531224,0,0,0,0
0.1392451453373409,-0.018517274231709874,-0.11576283027453124,0,0,0,0
0.1392451453373409,-0.018517274231709874,-0.11576283027453124,0,0,0,0
0.07693492533734089,-0.1625376242317099,0.0011924547254687752,0,0,0,0
-0.044948274662659105,-0.07031676423170988,0.05332123472546878,0,0,0,0
-0.021042998662659105,0.07091226076829013,0.005001036725468777,0,0,0,0
0.016095368337340894,-0.05162091823170987,-0.09340369027453123,0,0,0,0
-0.009508689062659106,-0.04184923123170987,0.021238462725468775,0,0,0,0
-0.009855445062659104,-0.02447998223170987,-0.08042861027453123,0,0,0,0
-0.025772364662659104,0.007250437768290128,0.0025797647254687745,0,0,0,0
-0.037617571662659104,0.016645370768290126,0.016172997725468773,0,0,0,0
-0.04045570666265911,0.011102320768290128,0.017381553725468773,0,0,0,0
-0.016087039162659106,-0.044853141231709866,-0.014761014274531225,0,0,0,0
0.013792054337340896,-0.010845222231709872,0.015464202725468775,0,0,0,0
-0.037485584662659104,-0.05725970823170987,-0.018004985274531225,0,0,0,0
-0.037485584662659104,-0.05725970823170987,-0.018004985274531225,0,0,0,0
-0.05930193466265911,0.01397100576829013,-0.009451337274531225,0,0,0,0
0.009718434337340896,-0.009100219231709871,0.0044135853254687754,0,0,0,0
0.034849373337340894,-0.061809654231709865,0.033600167725468776,0,0,0,0
-0.0413736186626591,0.00808677126829013,0.014316253725468773,0,0,0,0
-0.0413736186626591,0.00808677126829013,0.014316253725468773,0,0,0,0
0.06934482533734089,0.10517634576829012,0.05538845472546878,0,0,0,0
0.1566888953373409,0.060565412768290125,0.013674287725468772,0,0,0,0
0.1566888953373409,0.060565412768290125,0.013674287725468772,0,0,0,0
0.1566888953373409,0.060565412768290125,0.013674287725468772,0,0,0,0
-0.2047713146626591,0.06746752876829012,0.057970649725468774,0,0,0,0
-0.2047713146626591,0.06746752876829012,0.057970649725468774,0,0,0,0
-0.07366693766265911,-0.10668688423170988,-0.10599237027453123,0,0,0,0
-0.07366693766265911,-0.10668688423170988,-0.10599237027453123,0,0,0,0
-0.07366693766265911,-0.10668688423170988,-0.10599237027453123,0,0,0,0
0.11923114533734089,0.07699883576829013,0.02311524572546877,0,0,0,0
0.010886875337340892,0.10129837576829012,0.016907672725468774,0,0,0,0
-0.025386603662659105,-0.13632891423170987,0.03364522972546878,0,0,0,0
-0.06963222766265911,-0.06344503123170987,0.035032371725468775,0,0,0,0
-0.0771180946626591,0.007932281768290129,0.034047607725468776,0,0,0,0
-0.0771180946626591,0.007932281768290129,0.034047607725468776,0,0,0,0
-0.030064089662659103,-0.07961478423170987,-0.05942462027453122,0,0,0,0
0.0598502323373409,0.01584717676829013,0.030860559725468775,0,0,0,0
0.016833035337340894,0.021414452768290126,0.012960986725468773,0,0,0,0
-0.042010386662659105,-0.01978136223170987,-0.002357037274531225,0,0,0,0
0.016721455337340894,-0.03579298823170987,0.010256819725468776,0,0,0,0
0.016721455337340894,-0.03579298823170987,0.010256819725468776,0,0,0,0
0.0413849033373409,-0.07558742123170986,0.017186836725468776,0,0,0,0
0.0413849033373409,-0.07558742123170986,0.017186836725468776,0,0,0,0
-0.006251128362659106,0.01955698776829013,0.016978983725468775,0,0,0,0
0.013959519337340895,-0.0023735399317098716,-0.018006570674531226,0,0,0,0
0.029841153337340894,-0.041812044231709866,-0.09194584627453123,0,0,0,0
-0.015886862662659106,-0.09247388423170987,-0.007105524874531225,0,0,0,0
-0.016187270662659105,-0.08752450423170986,0.021210519725468772,0,0,0,0
-0.016187270662659105,-0.08752450423170986,0.021210519725468772,0,0,0,0
0.0716800853373409,-0.01178861223170987,-0.10144485027453123,0,0,0,0
0.09559871533734089,-0.05342016723170987,-0.03871549027453122,0,0,0,0
0.042335621337340895,-0.07066302823170988,-0.008114989144531225,0,0,0,0
-0.030693704662659103,0.015021860768290127,0.048997513725468775,0,0,0,0
-0.030693704662659103,0.015021860768290127,0.048997513725468775,0,0,0,0
0.11345388533734088,-0.06413368423170987,-0.06826506427453123,0,0,0,0
0.11345388533734088,-0.06413368423170987,-0.06826506427453123,0,0,0,0
0.09302970533734088,-0.027363139231709868,0.03137482972546878,0,0,0,0
-0.009156020262659107,-0.01038067923170987,0.034337357725468774,0,0,0,0
0.029828087337340894,-0.03245548423170987,0.04547296972546878,0,0,0,0
-0.017100699662659105,-0.03760556423170987,0.004391781725468774,0,0,0,0
0.0027959033373408946,0.0020739738682901284,0.03425472272546878,0,0,0,0
0.03061591833734089,0.02993812576829013,0.018617467725468777,0,0,0,0
0.055249611337340895,0.021195459768290133,0.015427855725468773,0,0,0,0
-0.016368945262659106,0.006390780768290128,-0.10535279027453123,0,0,0,0
-0.09549215466265912,0.0029175464682901285,-0.14989868027453124,0,0,0,0
-0.041519339662659104,0.015917986768290128,0.042080287725468776,0,0,0,0
0.10098258533734088,-0.011259037231709871,0.03584578472546878,0,0,0,0
0.029139248337340898,0.04339990576829013,0.024180786725468775,0,0,0,0
-0.08880546866265912,0.052410251768290124,0.029700819725468775,0,0,0,0
-0.08880546866265912,0.052410251768290124,0.029700819725468775,0,0,0,0
0.014998738337340896,0.029519820768290128,0.04039073472546877,0,0,0,0
0.014998738337340896,0.029519820768290128,0.04039073472546877,0,0,0,0
0.014998738337340896,0.029519820768290128,0.04039073472546877,0,0,0,0
-0.10087583866265912,-0.016469377231709874,-0.04753964727453122,0,0,0,0
-0.10087583866265912,-0.016469377231709874,-0.04753964727453122,0,0,0,0
-0.10402534466265911,0.07425295576829012,-0.06420572527453124,0,0,0,0
-0.006563552062659106,0.11830553576829013,0.007468287725468773,0,0,0,0
0.010587040337340894,-0.04249939423170987,-0.10260261027453123,0,0,0,0
0.010587040337340894,-0.04249939423170987,-0.10260261027453123,0,0,0,0
0.010587040337340894,-0.04249939423170987,-0.10260261027453123,0,0,0,0
0.023956315337340897,0.05374876876829013,0.059911362725468785,0,0,0,0
-0.016601927662659104,-0.07245406423170987,-0.17300540027453123,0,0,0,0
0.08259536533734088,-0.020164137231709872,0.002127878325468774,0,0,0,0
0.0491645953373409,0.011018294768290129,0.03697945272546878,0,0,0,0
-0.03391760166265911,-0.01883870923170987,0.061826853725468776,0,0,0,0
-0.03391760166265911,-0.01883870923170987,0.061826853725468776,0,0,0,0
0.03478099533734089,-0.005688661231709871,0.0007912557254687739,0,0,0,0
0.07228891033734089,0.034283673768290134,0.03351966572546878,0,0,0,0
0.07228891033734089,0.034283673768290134,0.03351966572546878,0,0,0,0
0.027536980337340894,0.01192758726829013,0.016665176725468772,0,0,0,0
-0.047422678662659104,-0.08932011423170987,0.03516704272546878,0,0,0,0
-0.0871215646626591,0.030854159768290132,0.021836429725468773,0,0,0,0
0.1408773553373409,-0.010468727231709872,-0.055786688274531225,0,0,0,0
0.1408773553373409,-0.010468727231709872,-0.055786688274531225,0,0,0,0
0.11759664533734089,-0.01470873923170987,0.0032183572254687745,0,0,0,0
-0.007898505362659106,-0.04105544623170987,0.01927459672546877,0,0,0,0
-0.10580127466265912,-0.02418006023170987,0.03206988972546878,0,0,0,0
-0.10580127466265912,-0.02418006023170987,0.03206988972546878,0,0,0,0
-0.13101576466265913,0.006551236368290129,0.029052869725468774,0,0,0,0
0.07621337533734088,0.03478095576829013,-0.02994240027453123,0,0,0,0
0.07621337533734088,0.03478095576829013,-0.02994240027453123,0,0,0,0
0.11591321533734089,-0.05538286423170988,-0.025061972274531226,0,0,0,0
0.11591321533734089,-0.05538286423170988,-0.025061972274531226,0,0,0,0
-0.1613516646626591,0.06289023176829012,0.062103144725468774,0,0,0,0
-0.0588579946626591,0.05380906576829013,0.08636623972546878,0,0,0,0
0.033497731337340894,0.03311722276829013,0.04197047172546878,0,0,0,0
0.06953670233734088,-0.05919312823170987,-0.05259591027453123,0,0,0,0
-0.1819513146626591,0.07032104576829014,0.04700663572546878,0,0,0,0
-0.1819513146626591,0.07032104576829014,0.04700663572546878,0,0,0,0
0.04861222933734089,0.05246750576829013,0.06228317472546877,0,0,0,0
0.10276433533734089,0.05456035576829013,0.006114594725468774,0,0,0,0
0.10276433533734089,0.05456035576829013,0.006114594725468774,0,0,0,0
0.0595954103373409,-0.005142980231709871,-0.11991347027453123,0,0,0,0
0.0595954103373409,-0.005142980231709871,-0.11991347027453123,0,0,0,0
-0.14487245466265913,0.07782788876829012,0.05621754372546877,0,0,0,0
0.004174725337340895,0.034377628768290126,0.07691534972546878,0,0,0,0
0.1302091753373409,0.006206483068290129,-0.009940107274531224,0,0,0,0
0.1302091753373409,0.006206483068290129,-0.009940107274531224,0,0,0,0
0.1302091753373409,0.006206483068290129,-0.009940107274531224,0,0,0,0
0.008659474337340895,0.025974309768290127,-0.15396829027453124,0,0,0,0
-0.13403070466265912,0.11867539576829013,0.08069175972546877,0,0,0,0
-0.13403070466265912,0.11867539576829013,0.08069175972546877,0,0,0,0
-0.07794397466265911,0.11468909576829013,0.07399933972546877,0,0,0,0
0.1939078453373409,0.05789210276829013,0.016766409725468775,0,0,0,0
0.1939078453373409,0.05789210276829013,0.016766409725468775,0,0,0,0
0.1138251453373409,0.035493892768290125,-0.04137230627453122,0,0,0,0
-0.1581298646626591,0.040188038768290135,0.08078335972546877,0,0,0,0
-0.1581298646626591,0.040188038768290135,0.08078335972546877,0,0,0,0
0.09366275533734089,-0.018280368231709872,0.06608116972546876,0,0,0,0
0.2176971553373409,-0.053463414231709874,0.043992309725468776,0,0,0,0
0.1366753753373409,-0.002216332731709871,0.014595894725468773,0,0,0,0
0.1366753753373409,-0.002216332731709871,0.014595894725468773,0,0,0,0
-0.050224764662659106,0.1283103657682901,-0.06411286027453122,0,0,0,0
-0.08113668466265911,0.12612039576829012,-0.16604663027453123,0,0,0,0
-0.060149274662659104,0.13610810576829013,-0.017894227874531224,0,0,0,0
0.08572894533734089,-0.1278570242317099,0.02371274672546877,0,0,0,0
0.07511846533734089,-0.06359099123170987,0.061213929725468776,0,0,0,0
0.07511846533734089,-0.06359099123170987,0.061213929725468776,0,0,0,0
0.07511846533734089,-0.06359099123170987,0.061213929725468776,0,0,0,0
0.061151711337340896,0.09743611576829013,0.04621409572546878,0,0,0,0
0.09102813533734089,0.05205281076829013,-0.003977687674531225,0,0,0,0
-0.006253321762659105,0.04465007576829013,-0.12689896027453124,0,0,0,0
0.016091076337340894,0.043257335768290134,0.023485129725468776,0,0,0,0
-0.0533207746626591,0.01004693576829013,0.050431005725468776,0,0,0,0
-0.07054394066265911,0.022259145768290127,0.046415629725468775,0,0,0,0
-0.07054394066265911,0.022259145768290127,0.046415629725468775,0,0,0,0
0.1281112853373409,0.06347615176829013,-0.16828902027453121,0,0,0,0
0.035360829337340895,0.03981082176829013,-0.005087049274531226,0,0,0,0
0.035360829337340895,0.03981082176829013,-0.005087049274531226,0,0,0,0
-0.05980461466265911,-0.029911476231709866,0.044088249725468785,0,0,0,0
-0.05980461466265911,-0.029911476231709866,0.044088249725468785,0,0,0,0
-0.10207203466265911,0.006649953768290129,0.03652570672546878,0,0,0,0
-0.06521013466265911,0.033542847768290134,0.017299894725468775,0,0,0,0
0.023020760337340896,0.01868280776829013,0.012807778725468774,0,0,0,0
0.0596193453373409,-0.009616493731709872,-0.11192289027453123,0,0,0,0
0.0596193453373409,-0.009616493731709872,-0.11192289027453123,0,0,0,0
0.011866490337340895,0.06245566576829013,0.03717587472546878,0,0,0,0
0.05234319533734089,-0.01723901623170987,-0.021220810274531224,0,0,0,0
0.05234319533734089,-0.01723901623170987,-0.021220810274531224,0,0,0,0
0.040279881337340895,-0.01849509423170987,0.010723380725468773,0,0,0,0
0.040279881337340895,-0.01849509423170987,0.010723380725468773,0,0,0,0
-0.020088370662659102,-0.02427244723170987,0.018528155725468773,0,0,0,0
0.040279881337340895,-0.01849509423170987,0.018528155725468773,0,0,0,0
-0.10039079966265911,0.06301838176829012,-0.04232462227453122,0,0,0,0
0.11758252533734088,0.06982593576829013,0.029105822725468775,0,0,0,0
0.11744863533734089,0.0025530760082901286,-0.003256328274531225,0,0,0,0
0.05689059933734089,-0.07194488423170987,-0.03835566827453123,0,0,0,0
0.05689059933734089,-0.07194488423170987,-0.03835566827453123,0,0,0,0
-0.09566648766265912,0.011063742768290129,0.017991904725468775,0,0,0,0
-0.0429052196626591,0.08330258176829013,0.03410319572546878,0,0,0,0
-0.0429052196626591,0.08330258176829013,0.03410319572546878,0,0,0,0
0.06438428533734089,0.06780567576829012,0.008717290725468774,0,0,0,0
0.06746150533734088,-0.08688325423170988,-0.16727441027453124,0,0,0,0
0.06746150533734088,-0.08688325423170988,-0.16727441027453124,0,0,0,0
-0.1429073146626591,-0.004731005231709872,0.07510777972546877,0,0,0,0
0.037201039337340897,0.05135580376829013,0.06815762972546877,0,0,0,0
0.037201039337340897,0.05135580376829013,0.06815762972546877,0,0,0,0
0.08745071133734089,0.03372892576829013,-0.16745408027453124,0,0,0,0
0.0739523093373409,-0.011242407231709871,-0.31909986027453124,0,0,0,0
0.0739523093373409,-0.011242407231709871,-0.31909986027453124,0,0,0,0
-0.09621456466265911,-0.009512364231709872,0.051117399725468776,0,0,0,0
-0.09621456466265911,-0.009512364231709872,0.051117399725468776,0,0,0,0
-0.09621456466265911,-0.009512364231709872,0.051117399725468776,0,0,0,0
-0.09621456466265911,-0.009512364231709872,0.051117399725468776,0,0,0,0
-0.12198351466265911,-0.01963891923170987,0.06016503972546878,0,0,0,0
0.0641365213373409,-0.02638058623170987,0.028575269725468772,0,0,0,0
0.009742848337340897,-0.04710457423170987,-0.04162050027453122,0,0,0,0
-0.04057586966265911,-0.07915262423170986,-0.21428846027453125,0,0,0,0
0.029725663337340898,-0.004222911231709871,0.013008324725468774,0,0,0,0
0.029725663337340898,-0.004222911231709871,0.013008324725468774,0,0,0,0
0.0357972303373409,0.07921382276829013,0.04385857972546878,0,0,0,0
0.051738085337340894,0.09531485576829013,0.04634273472546878,0,0,0,0
-0.025666125662659106,-0.03308040423170987,0.03848144272546878,0,0,0,0
-0.025666125662659106,-0.03308040423170987,0.03848144272546878,0,0,0,0
-0.14871118466265912,0.0002713625682901283,-0.07692650027453123,0,0,0,0
0.0855833213373409,-0.0027463789317098714,0.017953269725468773,0,0,0,0
0.0855833213373409,-0.0027463789317098714,0.017953269725468773,0,0,0,0
0.0427243393373409,-0.06435343423170987,-0.040973480274531224,0,0,0,0
0.001049248537340894,-0.12250757423170987,-0.036154920274531224,0,0,0,0
-0.0377490846626591,0.02104179276829013,0.05479433972546877,0,0,0,0
-0.0377490846626591,0.02104179276829013,0.05479433972546877,0,0,0,0
-0.024737341662659104,0.1380757257682901,0.03126879172546878,0,0,0,0
0.0367773213373409,-0.01518859823170987,-0.17946187027453123,0,0,0,0
0.0367773213373409,-0.01518859823170987,-0.17946187027453123,0,0,0,0
-0.0500233486626591,-0.08961808023170986,-0.16250962027453122,0,0,0,0
-0.0838137446626591,-0.06343523823170986,0.058266584725468785,0,0,0,0
-0.0649603686626591,-0.04725438923170987,0.07902972972546876,0,0,0,0
-0.0649603686626591,-0.04725438923170987,0.07902972972546876,0,0,0,0
0.010380475337340895,-0.011014586231709872,0.07899522972546877,0,0,0,0
0.010380475337340895,-0.011014586231709872,0.07899522972546877,0,0,0,0
0.016995636337340896,-0.0006110902317098712,0.02479627572546877,0,0,0,0
0.030092445337340894,-0.03692696623170987,-0.17038530027453125,0,0,0,0
0.030092445337340894,-0.03692696623170987,-0.17038530027453125,0,0,0,0
0.005003945337340895,-0.007044720231709871,-0.1766965002745312,0,0,0,0
-0.1285432646626591,-0.013243806231709872,0.06268953572546877,0,0,0,0
-0.1285432646626591,-0.013243806231709872,0.06268953572546877,0,0,0,0
0.09415818833734088,0.005337822868290129,0.04633010972546878,0,0,0,0
0.1599692553373409,0.04445186576829013,0.004425208225468775,0,0,0,0
0.1599692553373409,0.04445186576829013,0.004425208225468775,0,0,0,0
-0.019650347662659107,-0.05598801923170987,-0.2741521402745312,0,0,0,0
-0.13440035466265912,0.021691054768290127,0.005374209725468774,0,0,0,0
-0.22809165466265913,0.08579787576829014,0.10111477972546877,0,0,0,0
0.0489419153373409,0.0018496041082901285,0.07758813372546877,0,0,0,0
0.1320831453373409,-0.05967787423170987,0.08491082672546876,0,0,0,0
0.1320831453373409,-0.05967787423170987,0.08491082672546876,0,0,0,0
-0.0072392302626591055,-0.11525502423170987,-0.18005362027453123,0,0,0,0
-0.0072392302626591055,-0.11525502423170987,-0.18005362027453123,0,0,0,0
-0.0072392302626591055,-0.11525502423170987,-0.18005362027453123,0,0,0,0
-0.006333907262659106,-0.057027411231709874,-0.1797676902745312,0,0,0,0
-0.04643572166265911,0.01926961576829013,0.06227376972546878,0,0,0,0
-0.04643572166265911,0.01926961576829013,0.06227376972546878,0,0,0,0
-0.038035281662659105,-0.06313500423170987,0.06698109372546876,0,0,0,0
-0.017137320662659106,-0.10598621423170988,0.048334899725468776,0,0,0,0
0.04959975933734089,0.02018862376829013,0.027559475725468772,0,0,0,0
0.0946411293373409,0.024161595768290127,-0.04573367427453122,0,0,0,0
0.0946411293373409,0.024161595768290127,-0.04573367427453122,0,0,0,0
-0.009085448362659107,-0.04404939923170987,0.014240447725468775,0,0,0,0
-0.009085448362659107,-0.04404939923170987,0.014240447725468775,0,0,0,0
0.0016294640373408949,-0.05200040923170987,0.03140404672546878,0,0,0,0
-0.028444369662659105,0.05310948576829013,0.028103665725468772,0,0,0,0
-0.028444369662659105,0.05310948576829013,0.028103665725468772,0,0,0,0
-0.0368047546626591,0.0010906283682901286,-0.10788861027453124,0,0,0,0
0.06842662533734088,-0.05133045823170987,-0.05984173527453122,0,0,0,0
0.1427649653373409,-0.03589879223170987,0.02807760672546877,0,0,0,0
0.07198526033734089,-0.0025543922317098717,0.04268304572546878,0,0,0,0
-0.022635729662659105,0.016134786768290128,0.02574133172546877,0,0,0,0
-0.008734782362659106,0.005260432268290129,-0.08571945027453123,0,0,0,0
-0.008734782362659106,0.005260432268290129,-0.08571945027453123,0,0,0,0
-0.009077246662659105,0.09019073576829013,0.019793289725468774,0,0,0,0
0.007861534937340896,0.025975072768290128,0.018138925725468772,0,0,0,0
-0.014625247162659106,0.024990618768290125,0.002248518125468775,0,0,0,0
-0.014625247162659106,0.024990618768290125,0.002248518125468775,0,0,0,0
0.007234780337340895,-0.017534106231709874,0.015523592725468775,0,0,0,0
0.007234780337340895,-0.017534106231709874,0.015523592725468775,0,0,0,0
-0.051682360662659105,-0.02897279223170987,0.019873779725468773,0,0,0,0
-0.051682360662659105,-0.02897279223170987,0.019873779725468773,0,0,0,0
-0.0855044206626591,-0.005372309231709871,0.06957117972546877,0,0,0,0
-0.0855044206626591,-0.005372309231709871,0.06957117972546877,0,0,0,0
-0.09426010466265912,0.030269313768290132,0.07183958972546876,0,0,0,0
0.12349216533734089,0.028476411768290126,0.0019515677254687757,0,0,0,0
-0.004162295472659105,0.05909346576829013,0.02405380472546877,0,0,0,0
-0.09787529466265911,0.05247755576829013,0.04546407972546878,0,0,0,0
-0.1004860746626591,0.01655690676829013,0.051969529725468776,0,0,0,0
-0.1004860746626591,0.01655690676829013,0.051969529725468776,0,0,0,0
-0.1004860746626591,0.01655690676829013,0.051969529725468776,0,0,0,0
-0.1004860746626591,0.01655690676829013,0.051969529725468776,0,0,0,0
0.09977924533734088,-0.08526953423170987,-0.07193871027453122,0,0,0,0
0.0585607693373409,-0.05600590423170987,-0.04729779527453122,0,0,0,0
0.0010314148373408941,0.02271379276829013,0.06992083972546878,0,0,0,0
-0.03390291466265911,0.13017191576829013,0.08079083372546877,0,0,0,0
0.017462746337340893,0.13286328576829012,0.034552935725468775,0,0,0,0
0.017462746337340893,0.13286328576829012,0.034552935725468775,0,0,0,0
0.05390483533734089,0.00016059916829012835,-0.0005161598745312256,0,0,0,0
-0.10001800866265911,0.02328276676829013,0.005885426725468775,0,0,0,0
-0.10001800866265911,0.02328276676829013,0.005885426725468775,0,0,0,0
-0.10866592466265912,0.0018003825982901285,-0.0035203769745312252,0,0,0,0
-0.10866592466265912,0.0018003825982901285,-0.0035203769745312252,0,0,0,0
0.0035133523373408948,0.08809046176829012,0.03581264472546878,0,0,0,0
0.13690635533734088,0.03828542576829013,-0.03647464027453122,0,0,0,0
0.13690635533734088,0.03828542576829013,-0.03647464027453122,0,0,0,0
0.20969869533734087,-0.05593731923170987,-0.11472643027453124,0,0,0,0
-0.1624008946626591,0.014942920768290128,0.06313020472546878,0,0,0,0
-0.1624008946626591,0.014942920768290128,0.06313020472546878,0,0,0,0
-0.1624008946626591,0.014942920768290128,0.06313020472546878,0,0,0,0
-0.1624008946626591,0.014942920768290128,0.06313020472546878,0,0,0,0
