acc_x,acc_y,acc_z,gyro_x,gyro_y,gyro_z,label
-0.12368772466265912,0.03741933776829013,-0.007612837894531225,0,0,0,0
0.005516449837340893,-0.01885168023170987,0.022633073725468775,0,0,0,0
0.042043988337340896,-0.05716717823170987,0.013422293725468774,0,0,0,0
0.05652829533734089,-0.059665574231709866,0.02808455672546877,0,0,0,0
0.06283408533734089,-0.037187522231709874,0.07082245972546877,0,0,0,0
0.054984585337340894,0.02681745476829013,0.08295532972546878,0,0,0,0
-0.011049159162659104,0.07122182876829013,0.04470362472546878,0,0,0,0
-0.033018954662659104,0.04747717376829013,0.035445324725468776,0,0,0,0
-0.010326941662659106,-0.013954761231709871,0.041670541725468774,0,0,0,0
-0.010326941662659106,-0.013954761231709871,0.041670541725468774,0,0,0,0
-0.010326941662659106,-0.013954761231709871,0.041670541725468774,0,0,0,0
0.0810638593373409,0.009599864768290129,-0.03875417527453122,0,0,0,0
-0.00023496926265910607,0.01592465376829013,-0.0067366406745312255,0,0,0,0
-0.06969898466265911,0.00017877416829012883,-0.009723953974531225,0,0,0,0
0.07412330533734088,-0.04528320423170987,-0.008881016074531225,0,0,0,0
0.07412330533734088,-0.04528320423170987,-0.008881016074531225,0,0,0,0
0.07412330533734088,-0.04528320423170987,-0.008881016074531225,0,0,0,0
-0.017665179662659104,0.06085962576829013,0.05971706972546879,0,0,0,0
-0.017665179662659104,0.06085962576829013,0.05971706972546879,0,0,0,0
0.005040757337340894,0.07045066976829013,0.058403469725468775,0,0,0,0
0.010382382337340897,-0.08614155023170987,0.008749802725468773,0,0,0,0
-0.010470946662659106,-0.12902498423170988,0.02665241972546877,0,0,0,0
-0.010470946662659106,-0.12902498423170988,0.02665241972546877,0,0,0,0
-0.024366457662659102,-0.09246661023170986,0.011987642725468772,0,0,0,0
0.0490096253373409,0.07883876576829013,0.011442461725468773,0,0,0,0
0.043018165337340895,0.007406738768290129,-0.014326714274531225,0,0,0,0
0.043018165337340895,0.007406738768290129,-0.014326714274531225,0,0,0,0
-0.020085795662659105,-0.05571864423170987,-0.016609971274531225,0,0,0,0
-0.07984140466265911,-0.06926880423170988,0.005011374725468775,0,0,0,0
-0.08847893066265912,-0.0037197242317098715,0.03056205372546877,0,0,0,0
-0.08179586466265912,0.04302446276829013,0.033936555725468776,0,0,0,0
-0.0026954490126591055,0.03983326576829013,0.008023883725468774,0,0,0,0
0.0443468253373409,0.0032716263682901286,0.003055621725468774,0,0,0,0
0.0443468253373409,0.0032716263682901286,0.003055621725468774,0,0,0,0
0.023971955337340894,-0.019840457231709872,0.005052466725468775,0,0,0,0
-0.045013792662659105,-0.02983312223170987,0.008365943725468773,0,0,0,0
-0.12238100466265911,-0.03024781423170987,0.0044860047254687745,0,0,0,0
-0.1334193046626591,0.0053258110682901285,0.030962682725468777,0,0,0,0
-0.04711206766265911,0.07376967076829012,-0.0012707162745312249,0,0,0,0
0.015139977337340894,0.01742488776829013,0.007105132725468776,0,0,0,0
0.015139977337340894,0.01742488776829013,0.007105132725468776,0,0,0,0
0.031534020337340894,-0.058580764231709874,0.009626817725468775,0,0,0,0
0.019792573337340896,-0.07031155823170987,0.009009269725468776,0,0,0,0
0.019792573337340896,-0.07031155823170987,0.009009269725468776,0,0,0,0
-0.019070799662659104,0.03784089576829013,0.04339060972546877,0,0,0,0
-0.0027117568626591057,0.027176934768290133,0.06737524972546877,0,0,0,0
-0.0027117568626591057,0.027176934768290133,0.06737524972546877,0,0,0,0
-0.0027117568626591057,0.027176934768290133,0.06737524972546877,0,0,0,0
0.023269383337340896,-0.025407034231709875,0.009226419725468775,0,0,0,0
0.023269383337340896,-0.025407034231709875,0.009226419725468775,0,0,0,0
-0.005471594962659105,-0.06433748423170986,0.026952807725468774,0,0,0,0
-0.05146721166265911,-0.021008711231709873,0.010958242725468772,0,0,0,0
-0.05146721166265911,-0.021008711231709873,0.010958242725468772,0,0,0,0
-0.0021307784626591053,0.06316150576829013,-0.024019430274531225,0,0,0,0
0.07606021533734089,0.06584016576829013,-0.036824493274531224,0,0,0,0
0.1022867353373409,0.028413755768290132,-0.034412525274531224,0,0,0,0
0.037749305337340895,-0.004681701231709872,-0.011501954574531226,0,0,0,0
-0.04451187466265911,-0.04324570823170987,0.002089407725468774,0,0,0,0
-0.09180916166265911,-0.062080669231709865,0.008431702725468775,0,0,0,0
-0.019845278662659102,0.05984016076829013,0.001261256725468775,0,0,0,0
0.023617569337340896,0.03635389876829013,0.004863489725468775,0,0,0,0
0.023617569337340896,0.03635389876829013,0.004863489725468775,0,0,0,0
0.020147721337340895,-0.021986706231709875,-0.0060335174745312255,0,0,0,0
0.014401070337340893,-0.04490879123170987,0.009828534725468775,0,0,0,0
0.014850251337340897,0.02663324076829013,0.048472563725468786,0,0,0,0
0.014850251337340897,0.02663324076829013,0.048472563725468786,0,0,0,0
0.033540455337340895,-0.006639440231709872,-0.009698994474531226,0,0,0,0
-0.09039848466265911,-0.012906625231709871,0.021977529725468774,0,0,0,0
0.08668786533734088,0.03782318276829013,-0.012168718874531224,0,0,0,0
0.1478756153373409,0.019621169768290127,-0.024170590274531226,0,0,0,0
0.1478756153373409,0.019621169768290127,-0.024170590274531226,0,0,0,0
0.025499265337340895,0.013023935768290128,0.0005925057254687746,0,0,0,0
0.025499265337340895,0.013023935768290128,0.0005925057254687746,0,0,0,0
-0.0448225816626591,0.0022019808082901285,0.04084402772546877,0,0,0,0
-0.0448225816626591,0.0022019808082901285,0.04084402772546877,0,0,0,0
0.10198032533734089,0.01849324776829013,0.009097006725468773,0,0,0,0
0.10198032533734089,0.01849324776829013,0.009097006725468773,0,0,0,0
0.10198032533734089,0.01849324776829013,0.009097006725468773,0,0,0,0
0.1319143453373409,-0.016810998231709874,-0.004526151774531226,0,0,0,0
0.005684201337340894,0.0058916275682901285,0.034089699725468776,0,0,0,0
0.005679814337340894,0.006095949268290129,0.03376944172546877,0,0,0,0
0.005679814337340894,0.006095949268290129,0.03376944172546877,0,0,0,0
0.1219192653373409,0.07180722576829013,0.011148269725468774,0,0,0,0
0.1219192653373409,0.07180722576829013,0.011148269725468774,0,0,0,0
0.1219192653373409,0.07180722576829013,0.011148269725468774,0,0,0,0
0.0345767183373409,-0.03379305223170987,-0.003245989974531225,0,0,0,0
-0.0442039326626591,-0.02817471623170987,0.013279552725468775,0,0,0,0
0.0313797153373409,0.01097092076829013,0.021630792725468775,0,0,0,0
0.0313797153373409,0.01097092076829013,0.021630792725468775,0,0,0,0
0.0313797153373409,0.01097092076829013,0.021630792725468775,0,0,0,0
0.1267168253373409,0.02199733876829013,-0.007557015164531226,0,0,0,0
0.12535640533734088,-0.011224460231709872,-0.03161353927453123,0,0,0,0
0.12535640533734088,-0.011224460231709872,-0.03161353927453123,0,0,0,0
0.011155716337340894,-0.06167784423170987,-0.028068827274531225,0,0,0,0
-0.0924757796626591,-0.03368728423170987,-0.023833672274531224,0,0,0,0
-0.0924757796626591,-0.03368728423170987,-0.023833672274531224,0,0,0,0
-0.050284274662659105,0.009447011768290128,-0.022945665274531225,0,0,0,0
0.0538180513373409,0.04278618576829013,-0.051569820274531226,0,0,0,0
0.12896129533734088,-0.06203180423170987,-0.06640399027453123,0,0,0,0
0.05005056033734089,-0.09851427423170987,-0.07722273627453123,0,0,0,0
0.05005056033734089,-0.09851427423170987,-0.07722273627453123,0,0,0,0
-0.04050701466265911,-0.07681789423170987,-0.026568298274531225,0,0,0,0
-0.10990436466265911,0.043780893768290134,-0.023309241274531226,0,0,0,0
-0.03312300066265911,0.05733227176829013,-0.03982537527453122,0,0,0,0
0.1321745053373409,-0.06701999823170987,-0.07155083027453123,0,0,0,0
0.07227775533734089,-0.07330967723170988,-0.06291837027453123,0,0,0,0
-0.15138357466265911,0.01954512376829013,-0.011266331274531225,0,0,0,0
-0.15138357466265911,0.01954512376829013,-0.011266331274531225,0,0,0,0
-0.1202891146626591,0.015476823768290128,0.009574969725468774,0,0,0,0
-0.006316455062659106,-0.020311993231709867,-0.021701453274531227,0,0,0,0
0.08275434233734089,-0.04756909823170987,-0.034343140274531225,0,0,0,0
0.08275434233734089,-0.04756909823170987,-0.034343140274531225,0,0,0,0
-0.06234710966265911,-0.04218561923170987,-0.024618627274531225,0,0,0,0
-0.12024620466265912,0.0011417184682901286,0.012108112725468773,0,0,0,0
-0.10953224466265912,0.06214061576829013,-0.009634639274531225,0,0,0,0
-0.10953224466265912,0.06214061576829013,-0.009634639274531225,0,0,0,0
-0.033916934662659104,0.05207335976829013,-0.0004309937745312258,0,0,0,0
0.0368023083373409,-0.009962004231709872,-0.019013936874531227,0,0,0,0
-0.06574857966265911,-0.08561899023170987,-0.014354534274531225,0,0,0,0
-0.08054445466265911,-0.020465719231709874,0.02320105272546877,0,0,0,0
-0.08648203466265911,0.025349310768290133,0.018581519725468773,0,0,0,0
-0.0360049086626591,0.029373127768290125,-0.0021922752745312255,0,0,0,0
0.037356297337340895,-0.027144849231709872,-0.005951859074531225,0,0,0,0
0.037356297337340895,-0.027144849231709872,-0.005951859074531225,0,0,0,0
0.07227489133734089,-0.044817084231709874,-0.016894228774531225,0,0,0,0
-0.1379482146626591,-0.030432634231709867,-0.005071981274531226,0,0,0,0
-0.1379482146626591,-0.030432634231709867,-0.005071981274531226,0,0,0,0
-0.09486616466265911,-0.01399997423170987,-0.002246634674531225,0,0,0,0
-0.09486616466265911,-0.01399997423170987,-0.002246634674531225,0,0,0,0
-0.028537066662659104,-0.015483778231709872,-0.044083734274531224,0,0,0,0
0.0707301303373409,-0.025657094231709872,-0.035789896274531226,0,0,0,0
0.1034261853373409,-0.048974324231709866,-0.06872799527453123,0,0,0,0
0.0690482303373409,-0.057879358231709865,-0.056980860274531225,0,0,0,0
-0.005220778562659106,-0.03574948223170987,-0.03937657627453122,0,0,0,0
-0.005220778562659106,-0.03574948223170987,-0.03937657627453122,0,0,0,0
-0.005220778562659106,-0.03574948223170987,-0.03937657627453122,0,0,0,0
-0.03824613866265911,0.015649110768290127,-0.005785681274531225,0,0,0,0
0.10851070533734089,-0.044832312231709866,-0.010943092274531226,0,0,0,0
0.10851070533734089,-0.044832312231709866,-0.010943092274531226,0,0,0,0
0.013191239337340895,-0.026738399231709876,0.040473029725468776,0,0,0,0
0.013191239337340895,-0.026738399231709876,0.040473029725468776,0,0,0,0
0.09258777533734089,0.04492176176829013,-0.025058307274531226,0,0,0,0
0.09258777533734089,0.04492176176829013,-0.025058307274531226,0,0,0,0
0.13829356533734088,-0.013636404231709873,-0.03965182427453122,0,0,0,0
0.07861301133734089,-0.08358262723170988,-0.053702684274531225,0,0,0,0
0.004344860937340894,-0.10203271423170987,-0.037493945274531225,0,0,0,0
-0.10369585466265911,0.0026415710282901286,-0.04171735227453122,0,0,0,0
-0.10369585466265911,0.0026415710282901286,-0.04171735227453122,0,0,0,0
-0.10369585466265911,0.0026415710282901286,-0.04171735227453122,0,0,0,0
0.043945805337340896,0.04661994276829013,-0.03716690727453122,0,0,0,0
0.14694167533734087,-0.006335776231709871,-0.056977750274531225,0,0,0,0
0.14694167533734087,-0.006335776231709871,-0.056977750274531225,0,0,0,0
0.13626119533734088,-0.04425403423170987,-0.046760846274531226,0,0,0,0
0.06842767533734088,-0.03458469423170987,-0.03383285027453122,0,0,0,0
-0.008897956062659106,-0.022843794231709874,-0.005072624974531225,0,0,0,0
0.1566002053373409,0.0021470670482901287,0.001012889725468774,0,0,0,0
0.15302087533734088,-0.031228196231709866,0.005308662725468775,0,0,0,0
0.15302087533734088,-0.031228196231709866,0.005308662725468775,0,0,0,0
0.15302087533734088,-0.031228196231709866,0.005308662725468775,0,0,0,0
0.0380744153373409,-0.027732580231709873,-0.015637447274531226,0,0,0,0
-0.0723889186626591,-0.01583306123170987,0.02630983172546877,0,0,0,0
0.17646571533734087,-0.04053682623170987,-0.04650973227453122,0,0,0,0
0.17646571533734087,-0.04053682623170987,-0.04650973227453122,0,0,0,0
-0.07192362166265912,-0.018292122231709874,-0.027393062274531227,0,0,0,0
-0.07192362166265912,-0.018292122231709874,-0.027393062274531227,0,0,0,0
-0.07192362166265912,-0.018292122231709874,-0.027393062274531227,0,0,0,0
-0.020930464662659104,0.08064017576829013,-0.051280065274531224,0,0,0,0
-0.020930464662659104,0.08064017576829013,-0.051280065274531224,0,0,0,0
0.11783429533734088,0.013296938768290129,-0.04093766327453122,0,0,0,0
0.1492690253373409,-0.04681871423170987,-0.027941979274531226,0,0,0,0
-0.035004599662659105,-0.03355188423170987,0.003679017725468776,0,0,0,0
-0.035004599662659105,-0.03355188423170987,0.003679017725468776,0,0,0,0
-0.035049899662659104,-0.033714902231709865,0.003264878725468775,0,0,0,0
-0.06082590466265911,0.03996756076829013,0.03092328972546878,0,0,0,0
-0.06430834066265911,0.03463718976829013,0.019264001725468775,0,0,0,0
-0.06430834066265911,0.03463718976829013,0.019264001725468775,0,0,0,0
0.039237705337340896,0.0010594491682901284,0.015521780725468774,0,0,0,0
0.039237705337340896,0.0010594491682901284,0.015521780725468774,0,0,0,0
-0.044275076662659105,0.030774349768290125,0.023410719725468775,0,0,0,0
-0.0627393546626591,0.010975945768290129,0.016129390725468772,0,0,0,0
-0.039150794662659104,0.027910245768290126,0.002301882125468775,0,0,0,0
0.030564325337340895,0.04441971776829013,-0.028195430274531228,0,0,0,0
