acc_x,acc_y,acc_z,gyro_x,gyro_y,gyro_z,label
0.07942296533734089,-0.05202832723170987,0.0006888907254687738,0,0,0,0
0.07942296533734089,-0.05202832723170987,0.0006888907254687738,0,0,0,0
-0.07346866866265911,-0.037158644231709864,0.03387939172546878,0,0,0,0
-0.051312239662659104,-0.007362433831709871,0.0071526507254687744,0,0,0,0
0.007635990937340894,0.01283002276829013,0.001256464725468775,0,0,0,0
0.15530959533734087,0.0033496294682901287,-0.008210338674531225,0,0,0,0
0.15532256533734087,0.0037529502682901285,-0.008259381374531225,0,0,0,0
0.15532256533734087,0.0037529502682901285,-0.008259381374531225,0,0,0,0
0.08703252533734089,-0.0059300032317098714,-0.013030709274531226,0,0,0,0
-0.015225203662659104,-0.00021493093170987148,0.032410137725468774,0,0,0,0
-0.015225203662659104,-0.00021493093170987148,0.032410137725468774,0,0,0,0
-0.0029937583626591054,0.0015078012682901286,0.003982435125468775,0,0,0,0
0.0327126653373409,-0.01853551223170987,0.008479575725468775,0,0,0,0
0.0327126653373409,-0.01853551223170987,0.008479575725468775,0,0,0,0
0.1089160153373409,-5.9622031709871334e-05,0.030998573725468773,0,0,0,0
-0.06566417966265911,0.05635965576829013,0.026518444725468774,0,0,0,0
-0.008341773162659105,0.0070234094682901285,0.026887576725468775,0,0,0,0
0.06252176033734089,-0.01065069123170987,0.033052472725468775,0,0,0,0
0.06252176033734089,-0.01065069123170987,0.033052472725468775,0,0,0,0
0.06252176033734089,-0.01065069123170987,0.033052472725468775,0,0,0,0
0.04348432233734089,0.05931813176829012,-0.008784218174531226,0,0,0,0
0.1145040653373409,-0.007664718731709872,-0.024919010274531226,0,0,0,0
0.021436612337340896,-0.07559905423170987,-0.009034861674531226,0,0,0,0
-0.029503234662659104,0.04730044576829013,0.0051509597254687746,0,0,0,0
-0.019335921662659104,-0.001539662031709871,0.013338295725468775,0,0,0,0
0.061934295337340885,0.009801319768290129,0.05556755472546878,0,0,0,0
0.061934295337340885,0.009801319768290129,0.05556755472546878,0,0,0,0
0.061934295337340885,0.009801319768290129,0.05556755472546878,0,0,0,0
0.1290167953373409,0.02561891976829013,-0.004765631274531225,0,0,0,0
0.033432881337340896,-0.042240330231709866,-0.016209925774531224,0,0,0,0
-0.08282593066265911,-0.11631962423170987,0.029920486725468775,0,0,0,0
-0.10905655466265911,-0.03095709623170987,0.02774185372546877,0,0,0,0
-0.10905655466265911,-0.03095709623170987,0.02774185372546877,0,0,0,0
0.10068465533734088,0.03783566076829013,0.016009329725468775,0,0,0,0
0.20776522533734088,0.013145661768290129,-0.017144633874531225,0,0,0,0
0.20776522533734088,0.013145661768290129,-0.017144633874531225,0,0,0,0
0.1229621053373409,-0.04516492723170987,-0.013473548074531225,0,0,0,0
-0.0711284476626591,-0.02126511323170987,0.008973322725468774,0,0,0,0
-0.08617246966265911,-0.01750959123170987,0.034687782725468776,0,0,0,0
-0.1393813946626591,0.03536117576829013,0.03843743372546878,0,0,0,0
-0.1393813946626591,0.03536117576829013,0.03843743372546878,0,0,0,0
-0.13133457466265913,0.06037952976829013,0.020780484725468777,0,0,0,0
0.07551604933734088,0.05446493076829013,0.025870857725468776,0,0,0,0
0.2712214653373409,0.007766834368290129,0.003620271325468774,0,0,0,0
0.013748757337340895,0.0017159526182901285,-0.0034442618745312258,0,0,0,0
-0.0765683946626591,-0.060503810231709865,0.039597829725468776,0,0,0,0
-0.2786300546626591,0.007364476168290128,0.017010263725468776,0,0,0,0
-0.07500837466265911,0.02225289376829013,0.025669257725468773,0,0,0,0
-0.07500837466265911,0.02225289376829013,0.025669257725468773,0,0,0,0
0.16518308533734088,0.015666762768290127,0.016264413725468774,0,0,0,0
0.22308742533734088,0.03071331976829013,-0.031110091274531227,0,0,0,0
0.1733852553373409,0.04143915176829013,-0.03718952027453122,0,0,0,0
0.10373555533734088,-0.011494883231709873,-0.004594542174531225,0,0,0,0
-0.08599003166265912,0.03704690576829013,0.02110501372546877,0,0,0,0
-0.1472310846626591,0.05702530576829013,0.018755356725468773,0,0,0,0
-0.1472310846626591,0.05702530576829013,0.018755356725468773,0,0,0,0
-0.11503618466265911,0.013398760768290129,-0.005009610974531226,0,0,0,0
0.018448655337340896,-0.04668585423170987,-0.0022617772745312254,0,0,0,0
0.1650457553373409,-0.009730684231709872,0.0036622387254687744,0,0,0,0
0.1650457553373409,-0.009730684231709872,0.0036622387254687744,0,0,0,0
-0.0035739737926591057,0.0027763013682901285,0.09215119972546877,0,0,0,0
-0.0035739737926591057,0.0027763013682901285,0.09215119972546877,0,0,0,0
0.06279498533734089,0.02938093276829013,0.02712436472546877,0,0,0,0
0.11543409533734088,-0.056410598231709866,0.00045713032546877436,0,0,0,0
0.0885862513373409,-0.06556593723170988,0.010123483725468774,0,0,0,0
-0.10424831466265912,0.036367929768290126,-0.012608750274531226,0,0,0,0
-0.09740341466265912,0.01456540876829013,-0.020847930274531225,0,0,0,0
-0.014685614662659104,-0.03692387423170987,-0.04045607027453122,0,0,0,0
-0.004692919862659106,0.0024840091282901287,-0.04689960627453122,0,0,0,0
0.028267018337340896,0.02605801276829013,-0.05741901527453123,0,0,0,0
0.028267018337340896,0.02605801276829013,-0.05741901527453123,0,0,0,0
-0.13678482466265912,-0.01233601823170987,-0.011095537274531225,0,0,0,0
-0.13678482466265912,-0.01233601823170987,-0.011095537274531225,0,0,0,0
-0.13678482466265912,-0.01233601823170987,-0.011095537274531225,0,0,0,0
-0.10027225766265911,0.01594257076829013,0.04193111972546878,0,0,0,0
-0.0028894263626591055,-0.014464580231709873,0.028486765725468776,0,0,0,0
0.0471975483373409,-0.023659750231709874,0.01947279372546877,0,0,0,0
-0.017619212662659107,0.0005553816682901287,0.04700137972546878,0,0,0,0
-0.1694646646626591,0.02815007576829013,0.06089283672546878,0,0,0,0
-0.1694646646626591,0.02815007576829013,0.06089283672546878,0,0,0,0
-0.1694646646626591,0.02815007576829013,0.06089283672546878,0,0,0,0
-0.2137499746626591,0.07490063576829013,0.07069421972546877,0,0,0,0
-0.009068186862659106,0.0034478877682901287,0.03233332772546878,0,0,0,0
-0.009068186862659106,0.0034478877682901287,0.03233332772546878,0,0,0,0
0.1375538953373409,-0.04370318623170987,-0.023405100274531226,0,0,0,0
0.1375538953373409,-0.04370318623170987,-0.023405100274531226,0,0,0,0
0.010540310337340895,0.0028551851282901286,-0.017795206674531223,0,0,0,0
-0.14499376466265912,0.02115370076829013,0.021078829725468776,0,0,0,0
-0.20194071466265912,0.03219666576829013,0.018514769725468776,0,0,0,0
-0.1290504246626591,0.03580310576829013,0.04879644972546878,0,0,0,0
-0.1290504246626591,0.03580310576829013,0.04879644972546878,0,0,0,0
0.10041457533734088,0.04205272576829013,0.011889622725468774,0,0,0,0
0.1833017553373409,-0.0051327462317098714,-0.020539070274531224,0,0,0,0
0.16676179533734087,-0.08293039723170986,-0.024644811274531227,0,0,0,0
-0.12198847466265912,-0.01271922523170987,0.02959314972546877,0,0,0,0
-0.1448559646626591,0.05187906376829013,0.08244129972546878,0,0,0,0
-0.1448559646626591,0.05187906376829013,0.08244129972546878,0,0,0,0
0.09736348533734089,0.007192424368290129,-0.0007670952745312248,0,0,0,0
0.2261443253373409,-0.02848112223170987,-0.017977054274531223,0,0,0,0
0.2335725953373409,-0.03452998923170987,-0.04152826227453122,0,0,0,0
0.2335725953373409,-0.03452998923170987,-0.04152826227453122,0,0,0,0
0.07999574533734088,0.010578501768290128,-0.019369675274531227,0,0,0,0
-0.1276222046626591,0.029713205768290132,1.1487254687747583e-06,0,0,0,0
-0.1276222046626591,0.029713205768290132,1.1487254687747583e-06,0,0,0,0
-0.15510662466265912,-0.0019457276317098714,0.037372319725468776,0,0,0,0
-0.005473788362659106,-0.0035749669317098713,0.012362204725468773,0,0,0,0
0.11846162533734088,-0.01867035923170987,-0.05084472427453122,0,0,0,0
0.11846162533734088,-0.01867035923170987,-0.05084472427453122,0,0,0,0
0.06998216533734089,-0.014864131231709871,-0.0010401802745312258,0,0,0,0
0.06998216533734089,-0.014864131231709871,-0.0010401802745312258,0,0,0,0
-0.09893854466265911,0.023339459768290126,0.028655867725468773,0,0,0,0
-0.1506061346626591,0.07662269576829013,0.056388805725468776,0,0,0,0
-0.1506061346626591,0.07662269576829013,0.056388805725468776,0,0,0,0
0.11800281533734089,-0.004409548231709872,-0.008332033474531226,0,0,0,0
0.1842690653373409,-0.02625076423170987,-0.015591563274531227,0,0,0,0
0.05268956833734089,-0.030284341231709866,0.013361851725468773,0,0,0,0
0.05268956833734089,-0.030284341231709866,0.013361851725468773,0,0,0,0
-0.13204420466265912,0.032265665768290125,0.021126641725468773,0,0,0,0
-0.11168936466265911,0.05610039576829013,0.0023929521254687754,0,0,0,0
-0.023306925662659104,0.06876625576829012,0.0018166707254687756,0,0,0,0
0.05852433833734089,0.029562485768290125,-0.024841036274531228,0,0,0,0
0.12370664533734088,-0.01890074823170987,-0.029708935274531226,0,0,0,0
0.1270755953373409,-0.050146134231709875,-0.037152005274531226,0,0,0,0
0.0865863003373409,-0.0022417600317098715,-0.013315607674531226,0,0,0,0
-0.05037983266265911,0.06559028076829013,0.023642132725468775,0,0,0,0
-0.05037983266265911,0.06559028076829013,0.023642132725468775,0,0,0,0
-0.09018286066265911,0.050748539768290135,0.011692695725468775,0,0,0,0
-0.09018286066265911,0.050748539768290135,0.011692695725468775,0,0,0,0
-0.007515986662659105,-0.029148764231709867,0.014856593725468773,0,0,0,0
0.09927922533734088,0.00021916676829012837,0.03279077972546878,0,0,0,0
0.048699872337340896,0.015428075768290129,0.026909024725468775,0,0,0,0
0.048699872337340896,0.015428075768290129,0.026909024725468775,0,0,0,0
-0.021779711662659105,-0.005174395231709871,0.036703739725468774,0,0,0,0
-0.027946742662659105,0.040311169768290134,0.024343906725468777,0,0,0,0
0.04153672833734089,0.03035176576829013,-0.011622019274531225,0,0,0,0
0.04153672833734089,0.03035176576829013,-0.011622019274531225,0,0,0,0
0.07986280133734089,-0.029173546231709868,-0.018002833274531227,0,0,0,0
0.06539336833734088,-0.05957126023170987,-0.039468468274531224,0,0,0,0
-0.06311758466265911,0.03432946576829013,-0.014646329274531224,0,0,0,0
-0.0825458346626591,0.07684250576829013,0.013597939725468775,0,0,0,0
-0.0450488886626591,0.07391083576829012,-0.011403055574531225,0,0,0,0
0.032705609337340895,0.008938712368290129,-0.022393878274531223,0,0,0,0
0.1131029253373409,-0.03991741423170987,-0.031500198274531224,0,0,0,0
0.1300074753373409,-0.04761267223170987,-0.021465362274531226,0,0,0,0
0.06724321033734089,-0.009275722231709872,-0.016339577774531225,0,0,0,0
-0.06538399066265911,0.04597127576829013,0.009155337725468775,0,0,0,0
-0.06538399066265911,0.04597127576829013,0.009155337725468775,0,0,0,0
-0.051988680662659104,0.02801160276829013,0.032802934725468774,0,0,0,0
0.006794850337340894,0.02782727576829013,0.05402879572546878,0,0,0,0
0.006794850337340894,0.02782727576829013,0.05402879572546878,0,0,0,0
-0.06892183466265911,0.04132616576829013,-0.008741958474531224,0,0,0,0
-0.06892183466265911,0.04132616576829013,-0.008741958474531224,0,0,0,0
-0.08462532466265911,0.08624190576829012,-0.0030621602745312254,0,0,0,0
0.0405366103373409,0.010340571768290127,-0.009455193574531225,0,0,0,0
0.0405366103373409,0.010340571768290127,-0.009455193574531225,0,0,0,0
0.08215715133734089,-0.02515428623170987,-0.044671465274531225,0,0,0,0
0.07601339033734089,-0.03839203923170987,-0.04374505427453122,0,0,0,0
-0.0010032492626591057,-0.012431466231709872,-0.018046958774531226,0,0,0,0
-0.1134538446626591,0.02957452876829013,0.004037444225468774,0,0,0,0
-0.0466047126626591,0.029767859768290127,0.004409371225468775,0,0,0,0
0.022528473337340895,0.011018704368290128,-0.008185143814531226,0,0,0,0
-0.051908762662659105,-0.017943948231709868,-0.010649718374531224,0,0,0,0
-0.051908762662659105,-0.017943948231709868,-0.010649718374531224,0,0,0,0
-0.051908762662659105,-0.017943948231709868,-0.010649718374531224,0,0,0,0
-0.05008495666265911,-0.0002571906317098715,0.0026338327254687753,0,0,0,0
-0.03916805466265911,-0.0002443607317098714,0.0029145227254687737,0,0,0,0
-0.03916805466265911,-0.0002443607317098714,0.0029145227254687737,0,0,0,0
-0.019806273662659107,-0.03257160723170987,-0.02641977227453123,0,0,0,0
-0.08888958466265912,-0.024521162231709866,-0.015582735874531226,0,0,0,0
-0.12001388466265912,-0.0010756398317098713,-0.004641188674531225,0,0,0,0
