acc_x,acc_y,acc_z,gyro_x,gyro_y,gyro_z,label
0.003541771737340895,0.01557092976829013,0.028123537725468776,0,0,0,0
0.003541771737340895,0.01557092976829013,0.028123537725468776,0,0,0,0
0.04783975533734089,0.004759473068290129,-0.00010559127453122451,0,0,0,0
0.04783975533734089,0.004759473068290129,-0.00010559127453122451,0,0,0,0
0.12479602533734088,-0.03998711623170987,-0.027421815274531226,0,0,0,0
-0.030029089662659107,0.022738161768290126,0.024886814725468772,0,0,0,0
0.041146485337340895,-0.040501087231709865,-0.05736972827453122,0,0,0,0
-0.030029089662659107,0.022738161768290126,0.024886814725468772,0,0,0,0
0.024740807337340895,0.02355903776829013,0.02603522972546878,0,0,0,0
0.11186467533734087,-0.02948699423170987,0.015637223725468774,0,0,0,0
0.13306361533734087,-0.07198215423170988,0.012738232725468774,0,0,0,0
0.07123109533734089,-0.051613139231709876,0.006681994725468775,0,0,0,0
0.016577164337340897,0.03465685876829013,0.005249218725468776,0,0,0,0
0.025380913337340896,0.008804273768290127,-0.018775339274531226,0,0,0,0
0.06164972033734089,-0.007073479231709872,-0.030048604274531227,0,0,0,0
0.12928096533734088,-0.026415598231709872,-0.027537854274531225,0,0,0,0
0.12928096533734088,-0.026415598231709872,-0.027537854274531225,0,0,0,0
0.14020215533734087,-0.02560691223170987,-0.026923223274531227,0,0,0,0
-0.020117075662659106,-0.0002780254317098713,-0.010390134274531225,0,0,0,0
0.0032408873373408935,-0.02741913723170987,0.02455977672546877,0,0,0,0
0.07312404533734089,-0.007161563231709871,0.011781422725468775,0,0,0,0
0.03726236033734089,0.02108475576829013,0.03235950972546878,0,0,0,0
-0.014186652662659106,0.03294140176829013,0.017667726725468774,0,0,0,0
-0.014186652662659106,0.03294140176829013,0.017667726725468774,0,0,0,0
-0.014186652662659106,0.03294140176829013,0.017667726725468774,0,0,0,0
-0.006045230062659106,0.04818103076829013,-0.0012887792745312253,0,0,0,0
-0.006045230062659106,0.04818103076829013,-0.0012887792745312253,0,0,0,0
0.024213902337340894,-0.012473434231709872,-0.03545238527453122,0,0,0,0
-0.045543177662659105,0.02697951576829013,0.009142248725468774,0,0,0,0
-0.045543177662659105,0.02697951576829013,0.009142248725468774,0,0,0,0
0.06615831033734089,0.011901218168290128,0.014967481725468773,0,0,0,0
0.06615831033734089,0.011901218168290128,0.014967481725468773,0,0,0,0
0.06615831033734089,0.011901218168290128,0.014967481725468773,0,0,0,0
0.1134823053373409,-0.022650021231709873,0.013988987725468773,0,0,0,0
0.026302830337340894,-0.02030120423170987,-0.004257221574531225,0,0,0,0
-0.048093779662659104,0.03925464576829013,0.014642135725468776,0,0,0,0
-0.09440735166265911,0.05096633176829013,0.008535746725468776,0,0,0,0
-0.09440735166265911,0.05096633176829013,0.008535746725468776,0,0,0,0
0.1024982653373409,-0.0001858230317098716,-0.018487806674531225,0,0,0,0
0.1024982653373409,-0.0001858230317098716,-0.018487806674531225,0,0,0,0
0.1026090753373409,-0.00022513223170987163,-0.017805035274531224,0,0,0,0
-0.028252108662659106,-0.0004231686317098713,0.02567346572546877,0,0,0,0
-0.0426422916626591,0.02112841976829013,0.030966834725468777,0,0,0,0
0.013651768337340896,0.03086187576829013,-0.0030964212745312253,0,0,0,0
0.013651768337340896,0.03086187576829013,-0.0030964212745312253,0,0,0,0
0.0397436303373409,-0.04432169723170987,-0.03970262527453122,0,0,0,0
-0.027873404662659106,-0.008478873231709871,-0.0015117122745312251,0,0,0,0
-0.011864169262659107,0.04953849076829013,0.04318982972546878,0,0,0,0
0.037426678337340896,0.05797826076829013,0.03819474472546878,0,0,0,0
0.040161721337340896,-0.03416054223170987,0.017460231725468775,0,0,0,0
0.010674397337340893,-0.05290974923170987,0.0068318647254687745,0,0,0,0
0.0470849193373409,-0.03500426923170987,-0.004641719274531225,0,0,0,0
0.0953036453373409,-0.002988165231709871,0.0006239577254687741,0,0,0,0
0.04229184833734089,0.051846505768290134,0.016354719725468772,0,0,0,0
0.04229184833734089,0.051846505768290134,0.016354719725468772,0,0,0,0
-0.0439432946626591,0.01773220076829013,0.008015767725468772,0,0,0,0
0.058105105337340895,-0.04904127123170987,0.006647626725468773,0,0,0,0
0.1110038953373409,-0.006273293231709871,0.007283811725468774,0,0,0,0
0.1110038953373409,-0.006273293231709871,0.007283811725468774,0,0,0,0
-0.08396671466265912,0.08347799276829013,0.012237994725468774,0,0,0,0
-0.019086726662659106,0.07018088176829014,0.002837006725468774,0,0,0,0
0.0783058353373409,0.03070373576829013,-0.008768852074531226,0,0,0,0
0.11194068533734089,0.0020219181682901285,-0.04823693827453122,0,0,0,0
0.11194068533734089,0.0020219181682901285,-0.04823693827453122,0,0,0,0
-0.019079668662659106,0.004032409668290129,0.022212629725468773,0,0,0,0
-0.10954931466265912,0.09153501576829012,0.030574612725468773,0,0,0,0
-0.10954931466265912,0.09153501576829012,0.030574612725468773,0,0,0,0
-0.10954931466265912,0.09153501576829012,0.030574612725468773,0,0,0,0
-0.10954931466265912,0.09153501576829012,0.030574612725468773,0,0,0,0
0.10828382533734089,-0.03654124123170987,-0.013139374574531225,0,0,0,0
0.025953595337340898,0.015178805768290128,-0.004037554574531225,0,0,0,0
-0.0555728746626591,0.05366609176829013,0.020351271725468776,0,0,0,0
-0.09810531866265912,0.03322547976829013,0.0004398867254687749,0,0,0,0
0.04108440133734089,-0.0031415160317098713,-0.020370967274531224,0,0,0,0
-0.008116229162659106,0.03757800576829013,0.013742439725468774,0,0,0,0
-0.015383990662659105,0.09238672876829014,0.03922355572546878,0,0,0,0
-0.015383990662659105,0.09238672876829014,0.03922355572546878,0,0,0,0
0.06728107133734089,0.045286709768290134,0.0025500697254687748,0,0,0,0
0.06728107133734089,0.045286709768290134,0.0025500697254687748,0,0,0,0
-0.0501867146626591,-0.015016484231709872,-0.019381375674531225,0,0,0,0
-0.008508666162659106,0.04957210576829013,0.015182869725468773,0,0,0,0
0.021910492337340895,0.09103863876829013,0.018450229725468774,0,0,0,0
0.038845173337340895,0.02326730276829013,0.03372011672546878,0,0,0,0
0.06799155933734088,-0.04231874623170987,0.04472432572546878,0,0,0,0
0.06799155933734088,-0.04231874623170987,0.04472432572546878,0,0,0,0
0.05847655933734089,-0.06372919423170986,0.03456936372546878,0,0,0,0
0.06271039533734088,0.04079515376829013,0.04584677672546878,0,0,0,0
0.03608266533734089,0.07785226576829013,0.04308041972546877,0,0,0,0
0.03608266533734089,0.07785226576829013,0.04308041972546877,0,0,0,0
-0.025735075662659104,0.055000145768290126,0.02780275772546877,0,0,0,0
-0.025735075662659104,0.055000145768290126,0.02780275772546877,0,0,0,0
-0.021246321662659107,0.019456686768290127,0.009533647725468771,0,0,0,0
0.1158729753373409,0.014564383768290128,-0.039809008274531224,0,0,0,0
0.06926013533734089,-0.0068211372317098715,-0.03392842527453123,0,0,0,0
0.0419490023373409,-0.03275368723170987,-0.025880964274531227,0,0,0,0
0.0419490023373409,-0.03275368723170987,-0.025880964274531227,0,0,0,0
0.008196465337340895,-0.031802958231709866,-0.022348399274531226,0,0,0,0
-0.021006663662659103,-0.02514864423170987,0.010164289725468772,0,0,0,0
0.013294617337340896,0.005767444268290129,0.013699237725468775,0,0,0,0
0.039093129337340896,-0.009723817831709872,-0.0072158888345312255,0,0,0,0
0.030055825337340893,-0.0016040767317098718,-0.024765284274531226,0,0,0,0
0.036676136337340896,0.017243278768290127,-0.02574599527453123,0,0,0,0
0.0011075180373408943,0.022573706768290132,-0.06669082027453123,0,0,0,0
-0.0428233946626591,-0.017590778231709868,-0.13317357027453125,0,0,0,0
-0.022138960662659107,-0.001794805631709872,-0.020574088274531225,0,0,0,0
-0.0500017946626591,0.04924459576829013,0.020931641725468773,0,0,0,0
-0.0500017946626591,0.04924459576829013,0.020931641725468773,0,0,0,0
-0.0500017946626591,0.04924459576829013,0.020931641725468773,0,0,0,0
-0.08015850466265911,-0.03140139423170987,0.011713675725468772,0,0,0,0
-0.08015850466265911,-0.03140139423170987,0.011713675725468772,0,0,0,0
-0.040759737662659105,-0.016595804231709872,0.019285683725468777,0,0,0,0
-0.040759737662659105,-0.016595804231709872,0.019285683725468777,0,0,0,0
-0.007444937662659105,0.03858045976829013,0.016892246725468775,0,0,0,0
0.004196278337340893,0.08991069276829013,0.014645342725468774,0,0,0,0
-0.0017383414626591055,-0.05672711423170987,-0.014865930274531224,0,0,0,0
-0.0017383414626591055,-0.05672711423170987,-0.014865930274531224,0,0,0,0
-0.06799591466265911,-0.08775451723170988,-0.006577296574531225,0,0,0,0
-0.06799591466265911,-0.08775451723170988,-0.006577296574531225,0,0,0,0
-0.049843581662659106,0.03503270576829013,0.04767106972546878,0,0,0,0
0.03656894433734089,0.058471855768290136,0.06743480972546877,0,0,0,0
0.041061703337340896,0.02584790576829013,0.03958765672546878,0,0,0,0
0.026566998337340893,-0.07089768023170988,-9.921327453122492e-05,0,0,0,0
-0.033029826662659106,-0.06803750423170987,-0.0005473688745312255,0,0,0,0
-0.1098475246626591,-0.03757572723170987,0.015899197725468772,0,0,0,0
-0.1098475246626591,-0.03757572723170987,0.015899197725468772,0,0,0,0
0.026979939337340893,0.014041762768290129,0.021598999725468773,0,0,0,0
0.026979939337340893,0.014041762768290129,0.021598999725468773,0,0,0,0
0.0606850783373409,0.014177401768290129,-0.007339866504531225,0,0,0,0
0.10244456533734089,-0.025974282231709868,-0.014765103274531226,0,0,0,0
-0.005464156262659106,0.023572099768290132,-0.008420772874531225,0,0,0,0
0.023604790337340892,0.018582503768290126,0.022283117725468773,0,0,0,0
0.023604790337340892,0.018582503768290126,0.022283117725468773,0,0,0,0
0.0424160153373409,0.005161238168290129,0.02009414972546877,0,0,0,0
0.03984786733734089,-0.09084157423170987,-0.0010205942745312247,0,0,0,0
0.03984786733734089,-0.09084157423170987,-0.0010205942745312247,0,0,0,0
0.03984786733734089,-0.09084157423170987,-0.0010205942745312247,0,0,0,0
0.044435708337340896,-0.09240145023170987,0.03362477272546878,0,0,0,0
0.1080406353373409,0.03790241576829013,0.03248110272546877,0,0,0,0
0.12341758533734087,-0.01400967823170987,0.026333039725468774,0,0,0,0
0.12341758533734087,-0.01400967823170987,0.026333039725468774,0,0,0,0
0.06736404133734089,-0.046332302231709865,-0.03328632827453122,0,0,0,0
0.06736404133734089,-0.046332302231709865,-0.03328632827453122,0,0,0,0
0.02947770733734089,-0.05359782423170987,-0.032954795274531226,0,0,0,0
0.02947770733734089,-0.05359782423170987,-0.032954795274531226,0,0,0,0
-0.057724268662659096,-0.007284545231709872,-0.03320712627453122,0,0,0,0
0.13045350533734087,-0.021872490231709875,-0.012291355474531225,0,0,0,0
0.0673508803373409,-0.07041680423170986,-0.012513764274531224,0,0,0,0
0.015628163337340895,-0.03395344423170987,-0.0010129407745312251,0,0,0,0
0.015628163337340895,-0.03395344423170987,-0.0010129407745312251,0,0,0,0
-0.008022006162659107,0.0016230110882901286,-0.015891011274531224,0,0,0,0
-0.008022006162659107,0.0016230110882901286,-0.015891011274531224,0,0,0,0
0.0552271053373409,-0.020237669231709873,-0.018603249274531226,0,0,0,0
-0.026203044662659103,-0.06113684723170987,0.009949247725468773,0,0,0,0
-0.014336474662659106,-0.04146148223170987,0.03419117172546878,0,0,0,0
0.0494364903373409,0.02188113676829013,-0.0014381842745312245,0,0,0,0
0.0906153853373409,-0.03987468123170987,-0.030135412274531224,0,0,0,0
0.0906153853373409,-0.03987468123170987,-0.030135412274531224,0,0,0,0
-0.010005744162659105,-0.11788790423170986,-0.024702735274531224,0,0,0,0
-0.010005744162659105,-0.11788790423170986,-0.024702735274531224,0,0,0,0
-0.10100944866265911,-0.05073170423170986,-0.015252657274531225,0,0,0,0
0.09478027033734089,-0.04531152823170987,-0.009169299974531225,0,0,0,0
0.09478027033734089,-0.04531152823170987,-0.009169299974531225,0,0,0,0
0.0868567653373409,-0.061467214231709866,-0.006885929474531225,0,0,0,0
-0.06478021966265911,-0.05695329823170987,0.020686379725468777,0,0,0,0
-0.06478021966265911,-0.05695329823170987,0.020686379725468777,0,0,0,0
0.03413068533734089,0.024617985768290128,0.03955883272546878,0,0,0,0
0.1375551353373409,0.017255026768290126,0.014687137725468775,0,0,0,0
0.1402593753373409,-0.019484835231709872,-0.018814440274531226,0,0,0,0
0.08877536533734089,-0.09970684423170988,-0.035139258274531224,0,0,0,0
0.08877536533734089,-0.09970684423170988,-0.035139258274531224,0,0,0,0
0.041694657337340894,-0.12353485423170986,-0.017628379274531224,0,0,0,0
0.041694657337340894,-0.12353485423170986,-0.017628379274531224,0,0,0,0
-0.0474138096626591,-0.08736179423170987,0.01911197172546877,0,0,0,0
-0.10138452866265911,-0.012435149231709871,0.02275050172546877,0,0,0,0
