acc_x,acc_y,acc_z,gyro_x,gyro_y,gyro_z,label
-0.0490909416626591,0.056516285768290125,-0.022734417274531224,0,0,0,0
0.0332202123373409,-0.05650412423170986,-0.03161488327453123,0,0,0,0
0.0843350553373409,-0.05096803423170987,-0.058045913274531215,0,0,0,0
0.024654881337340895,-0.012670859231709871,-0.022825075274531224,0,0,0,0
-0.0785518486626591,-0.00958876263170987,0.010757110725468776,0,0,0,0
-0.07398184166265911,-0.0004608954317098712,0.012858168725468775,0,0,0,0
-0.07398184166265911,-0.0004608954317098712,0.012858168725468775,0,0,0,0
-0.004243739262659105,0.02335673276829013,0.014044515725468772,0,0,0,0
0.07077333133734089,0.00020627726829012833,-0.0019475355745312258,0,0,0,0
0.07077333133734089,0.00020627726829012833,-0.0019475355745312258,0,0,0,0
0.07077333133734089,0.00020627726829012833,-0.0019475355745312258,0,0,0,0
0.03669397033734089,-0.07996482423170986,0.004648212725468775,0,0,0,0
-0.07302721466265912,-0.04080080023170987,0.006738517725468776,0,0,0,0
-0.13459013466265912,0.010153115268290129,0.023038147725468774,0,0,0,0
-0.10043333466265911,0.03696361576829013,0.010948364725468774,0,0,0,0
-0.10043333466265911,0.03696361576829013,0.010948364725468774,0,0,0,0
0.016988770337340895,0.026070785768290132,0.005574385725468774,0,0,0,0
0.016988770337340895,0.026070785768290132,0.005574385725468774,0,0,0,0
-0.030978472662659105,0.028131783768290126,-0.04461686727453122,0,0,0,0
-0.1164884446626591,0.06046413576829013,-0.03687950027453123,0,0,0,0
-0.0980438046626591,0.021780687768290126,-0.039326538274531225,0,0,0,0
0.0480427903373409,-0.04067755423170987,-0.03509401827453122,0,0,0,0
0.0480427903373409,-0.04067755423170987,-0.03509401827453122,0,0,0,0
0.1476550253373409,-0.07228739423170986,-0.03964895727453122,0,0,0,0
0.12673923533734088,-0.07166040423170987,-0.023314555274531225,0,0,0,0
0.033442322337340895,-0.03379226623170987,-0.020336361274531225,0,0,0,0
-0.056539994662659104,-0.006258624231709871,0.027356062725468772,0,0,0,0
-0.056539994662659104,-0.006258624231709871,0.027356062725468772,0,0,0,0
-0.06951931466265912,0.05045902776829013,0.03341709172546878,0,0,0,0
0.043581788337340895,-0.009362288831709871,0.006981973725468775,0,0,0,0
0.043581788337340895,-0.009362288831709871,0.006981973725468775,0,0,0,0
0.043581788337340895,-0.009362288831709871,0.006981973725468775,0,0,0,0
0.019417397337340894,-0.09255570723170987,-0.003333552274531225,0,0,0,0
-0.021421797662659104,-0.04837535023170987,0.0005054097254687745,0,0,0,0
-0.021421797662659104,-0.04837535023170987,0.0005054097254687745,0,0,0,0
-0.0648972346626591,0.01249640626829013,-0.002167429074531225,0,0,0,0
-0.0366200286626591,0.02396440076829013,-0.03174103027453122,0,0,0,0
0.017692486337340895,-0.02915966123170987,-0.04469128427453122,0,0,0,0
0.031925695337340895,-0.06564420423170987,-0.05171331327453122,0,0,0,0
0.020631997337340894,-0.049215634231709875,-0.05073009327453122,0,0,0,0
-0.0014756041626591055,-0.014340367231709871,-0.03288224527453122,0,0,0,0
-0.010791380662659104,0.017929858768290126,-0.007069118374531226,0,0,0,0
-0.024293787662659105,0.005004734268290128,0.020277449725468775,0,0,0,0
0.006511608937340895,-0.006884354231709872,0.013946495725468775,0,0,0,0
0.0673633753373409,0.004273203468290129,0.03954679772546878,0,0,0,0
0.0673633753373409,0.004273203468290129,0.03954679772546878,0,0,0,0
0.022972313337340896,-0.02114993023170987,-0.005508621074531225,0,0,0,0
0.022972313337340896,-0.02114993023170987,-0.005508621074531225,0,0,0,0
0.022972313337340896,-0.02114993023170987,-0.005508621074531225,0,0,0,0
0.022972313337340896,-0.02114993023170987,-0.005508621074531225,0,0,0,0
-0.0545516806626591,-0.06665633423170987,0.03695292272546878,0,0,0,0
-0.08326423966265911,-0.010242727231709872,0.020222095725468774,0,0,0,0
-0.08326423966265911,-0.010242727231709872,0.020222095725468774,0,0,0,0
0.10879727533734089,-0.013404464231709873,-0.04271583027453122,0,0,0,0
0.10879727533734089,-0.013404464231709873,-0.04271583027453122,0,0,0,0
0.05793515833734089,-0.006432753231709871,-0.07734221327453122,0,0,0,0
0.05793515833734089,-0.006432753231709871,-0.07734221327453122,0,0,0,0
-0.0562777346626591,0.02104880676829013,-0.10666791027453124,0,0,0,0
-0.0562777346626591,0.02104880676829013,-0.10666791027453124,0,0,0,0
-0.0701969946626591,-0.014429068231709872,-0.038629968274531225,0,0,0,0
-0.036323626662659106,-0.018865328231709867,-0.0008698538745312246,0,0,0,0
-0.038639719662659104,0.03852519576829013,0.030487523725468774,0,0,0,0
-0.05029676766265911,0.004967296568290129,0.03881345972546878,0,0,0,0
-0.041097814662659105,-0.02024190723170987,0.027688309725468773,0,0,0,0
-0.0017074424626591055,0.03535059776829013,-0.0019627288745312256,0,0,0,0
0.04203530933734089,0.013783638768290129,-0.016342266274531225,0,0,0,0
0.04203530933734089,0.013783638768290129,-0.016342266274531225,0,0,0,0
0.04203530933734089,0.013783638768290129,-0.016342266274531225,0,0,0,0
0.06964809133734089,-0.0007433380317098713,-0.056044097274531225,0,0,0,0
0.04920436533734089,0.019049917768290132,-0.05572932527453122,0,0,0,0
-0.017688448662659107,-0.007808863631709871,-0.06833432427453123,0,0,0,0
-0.017688448662659107,-0.007808863631709871,-0.06833432427453123,0,0,0,0
-0.06863926466265911,0.04783317776829013,0.00015609672546877413,0,0,0,0
-0.06863926466265911,0.04783317776829013,0.00015609672546877413,0,0,0,0
0.0981349153373409,-0.03674629423170987,0.023831407725468778,0,0,0,0
0.0981349153373409,-0.03674629423170987,0.023831407725468778,0,0,0,0
0.0981349153373409,-0.03674629423170987,0.023831407725468778,0,0,0,0
0.019218365337340896,-0.020618864231709867,0.008857582725468775,0,0,0,0
0.021941010337340895,0.02129877676829013,0.03395029172546878,0,0,0,0
0.021941010337340895,0.02129877676829013,0.03395029172546878,0,0,0,0
0.0027256173373408944,0.07652224976829013,0.030841575725468775,0,0,0,0
0.007214848337340895,-0.05289999423170987,-0.021351214274531224,0,0,0,0
-0.0037544089726591055,-0.08745464423170987,-0.05426932027453122,0,0,0,0
-0.0037544089726591055,-0.08745464423170987,-0.05426932027453122,0,0,0,0
-0.0602015346626591,-0.03967027423170987,-0.055403764274531225,0,0,0,0
-0.056749234662659104,0.014353779768290128,-0.06528295027453122,0,0,0,0
0.03938180533734089,0.01642719676829013,-0.04063294727453122,0,0,0,0
0.08635780033734089,0.0017351512682901287,-0.030883940274531226,0,0,0,0
0.03132526133734089,0.004290184768290128,-0.022624178274531226,0,0,0,0
-0.03487413666265911,-0.015263474231709871,-0.017773874274531226,0,0,0,0
-0.14289310466265912,-0.030178692231709874,0.007104842725468776,0,0,0,0
-0.18450807466265912,-0.010731794231709873,-0.013677902574531225,0,0,0,0
-0.18450807466265912,-0.010731794231709873,-0.013677902574531225,0,0,0,0
-0.1070820646626591,-0.02266431423170987,0.0034663127254687754,0,0,0,0
0.003863160337340895,-0.06629434823170986,-0.045161290274531224,0,0,0,0
0.003863160337340895,-0.06629434823170986,-0.045161290274531224,0,0,0,0
0.012503926337340893,0.0031737182682901287,-0.012319524674531224,0,0,0,0
-0.07128952466265912,0.06568213576829013,-0.020000083774531226,0,0,0,0
-0.07112777966265911,0.08613497076829013,-0.020124931674531225,0,0,0,0
-0.07112777966265911,0.08613497076829013,-0.020124931674531225,0,0,0,0
0.010918633337340895,-0.08811430423170988,-0.013967760274531225,0,0,0,0
-0.030270941662659104,-0.05851119423170986,0.002858690725468775,0,0,0,0
-0.030270941662659104,-0.05851119423170986,0.002858690725468775,0,0,0,0
-0.07933233466265911,0.03522802076829013,0.051024529725468774,0,0,0,0
0.034045807337340896,0.02385363576829013,0.05076768972546877,0,0,0,0
0.034045807337340896,0.02385363576829013,0.05076768972546877,0,0,0,0
0.16260635533734089,0.013343784768290129,-0.007495124674531225,0,0,0,0
0.16260635533734089,0.013343784768290129,-0.007495124674531225,0,0,0,0
0.16260635533734089,0.013343784768290129,-0.007495124674531225,0,0,0,0
0.16260635533734089,0.013343784768290129,-0.007495124674531225,0,0,0,0
0.0350987593373409,-0.06473698023170986,0.008834437725468776,0,0,0,0
0.0350987593373409,-0.06473698023170986,0.008834437725468776,0,0,0,0
-0.0650261746626591,-0.06527867823170987,-0.020985646274531228,0,0,0,0
-0.09790123466265911,0.025399697768290132,-0.029048593274531225,0,0,0,0
-0.09790123466265911,0.025399697768290132,-0.029048593274531225,0,0,0,0
0.08550798133734089,0.10309448576829013,-0.04747652527453122,0,0,0,0
0.12142202533734087,0.06048991576829013,-0.07566854527453123,0,0,0,0
0.12142202533734087,0.06048991576829013,-0.07566854527453123,0,0,0,0
0.12142202533734087,0.06048991576829013,-0.07566854527453123,0,0,0,0
-0.030084689662659106,-0.04799550423170987,-0.04823547027453122,0,0,0,0
-0.06850212466265912,0.03699693176829013,0.006139735725468775,0,0,0,0
-0.06850212466265912,0.03699693176829013,0.006139735725468775,0,0,0,0
0.050571555337340895,-0.04550549923170987,-0.008874352274531226,0,0,0,0
0.050571555337340895,-0.04550549923170987,-0.008874352274531226,0,0,0,0
0.09910565533734088,-0.037003804231709875,-0.016832621274531227,0,0,0,0
0.09910565533734088,-0.037003804231709875,-0.016832621274531227,0,0,0,0
-0.023569758662659104,0.07792199876829013,-0.021763702274531227,0,0,0,0
-0.17332380466265912,0.08594105876829013,-0.0027085259745312255,0,0,0,0
-0.12340477466265912,-0.006873452231709872,-0.03415206227453123,0,0,0,0
0.011856858337340896,0.01953881176829013,-0.025956662274531226,0,0,0,0
0.12052852533734089,-0.02042617723170987,-0.04333735227453123,0,0,0,0
0.12052852533734089,-0.02042617723170987,-0.04333735227453123,0,0,0,0
0.0017229241373408945,-0.042288932231709875,-0.009306247574531225,0,0,0,0
0.0017229241373408945,-0.042288932231709875,-0.009306247574531225,0,0,0,0
-0.05097568766265911,0.07711749076829012,0.030380969725468773,0,0,0,0
-0.1265431246626591,0.10863096576829014,0.022695909725468776,0,0,0,0
-0.05843990466265911,0.05255938576829013,0.007307664725468775,0,0,0,0
0.0386527223373409,0.019349748768290133,0.019627109725468776,0,0,0,0
0.0386527223373409,0.019349748768290133,0.019627109725468776,0,0,0,0
0.03625613833734089,0.00027186026829012847,0.010253242725468775,0,0,0,0
-0.005557520962659105,-0.02404018623170987,0.008576373725468774,0,0,0,0
-0.0008276778626591058,0.02154062276829013,0.012076131725468772,0,0,0,0
-0.025186904662659104,0.07619134576829013,0.033264653725468774,0,0,0,0
-0.025186904662659104,0.07619134576829013,0.033264653725468774,0,0,0,0
0.11071340533734089,-0.024125354231709868,-0.04796391327453122,0,0,0,0
0.11071340533734089,-0.024125354231709868,-0.04796391327453122,0,0,0,0
0.11071340533734089,-0.024125354231709868,-0.04796391327453122,0,0,0,0
0.0335206193373409,0.005996695768290129,-0.051377340274531225,0,0,0,0
-0.057835464662659104,0.04403191876829013,-0.030539365274531226,0,0,0,0
-0.018353636662659104,0.005454025168290129,0.009518150725468775,0,0,0,0
-0.018353636662659104,0.005454025168290129,0.009518150725468775,0,0,0,0
0.10303346533734088,-0.004506840831709872,-0.004816074674531225,0,0,0,0
0.10303346533734088,-0.004506840831709872,-0.004816074674531225,0,0,0,0
0.12194882533734089,-0.01309560223170987,0.007300476725468776,0,0,0,0
-0.028030188662659106,0.05299935976829013,0.006991271725468775,0,0,0,0
-0.0576738196626591,0.11284665576829013,-0.011844833274531225,0,0,0,0
0.07701675133734089,0.0027763892682901286,-0.05069449727453122,0,0,0,0
0.0031906288373408937,-0.008262979231709872,-0.05649617427453122,0,0,0,0
-0.0603900746626591,0.02873103076829013,-0.004574425574531225,0,0,0,0
-0.10979507466265911,0.06202680576829014,-0.014428360774531225,0,0,0,0
-0.10979507466265911,0.06202680576829014,-0.014428360774531225,0,0,0,0
-0.10979507466265911,0.06202680576829014,-0.014428360774531225,0,0,0,0
0.07155820533734089,-0.02764291723170987,-0.009339340074531225,0,0,0,0
0.07155820533734089,-0.02764291723170987,-0.009339340074531225,0,0,0,0
0.014549939337340896,0.017717588768290125,-0.012938411574531225,0,0,0,0
0.014549939337340896,0.017717588768290125,-0.012938411574531225,0,0,0,0
-0.040585406662659106,0.06323775576829013,-0.005230446274531226,0,0,0,0
-0.040585406662659106,0.06323775576829013,-0.005230446274531226,0,0,0,0
-0.08928240166265912,0.10044543576829014,-0.013779301974531224,0,0,0,0
-0.0003412086626591055,0.07312392576829013,-0.018851788274531225,0,0,0,0
0.07818996133734088,0.02127454876829013,-0.044990440274531224,0,0,0,0
0.0688315553373409,-0.010785044231709872,-0.07104217527453123,0,0,0,0
0.0688315553373409,-0.010785044231709872,-0.07104217527453123,0,0,0,0
-0.012950690662659105,-0.04266603823170987,-0.04145414427453122,0,0,0,0
-0.10812338466265911,0.025271421768290128,0.05769123972546878,0,0,0,0
-0.051814349662659104,0.08973580076829013,0.052190939725468774,0,0,0,0
0.07289315833734089,0.10452057576829013,0.026298145725468774,0,0,0,0
0.14940148533734088,-0.013193654231709871,0.0013108297254687757,0,0,0,0
0.0333781403373409,-0.06251736423170988,0.027348415725468773,0,0,0,0
0.0333781403373409,-0.06251736423170988,0.027348415725468773,0,0,0,0
