acc_x,acc_y,acc_z,gyro_x,gyro_y,gyro_z,label
0.09091541033734088,0.08322975076829013,-0.08480684027453123,0,0,0,0
0.1225114053373409,-0.01644958623170987,-0.049942787274531227,0,0,0,0
0.1225114053373409,-0.01644958623170987,-0.049942787274531227,0,0,0,0
0.1225114053373409,-0.01644958623170987,-0.049942787274531227,0,0,0,0
-0.11484745466265911,0.04248667376829013,-0.04499944027453122,0,0,0,0
-0.11484745466265911,0.04248667376829013,-0.04499944027453122,0,0,0,0
-0.1058851046626591,0.02116395776829013,0.01953761972546877,0,0,0,0
0.010298077337340894,-0.09622580923170987,-0.020845659274531227,0,0,0,0
0.010298077337340894,-0.09622580923170987,-0.020845659274531227,0,0,0,0
0.1670706953373409,-0.09290174823170987,-0.05407000327453122,0,0,0,0
0.012027565337340895,-0.03096955123170987,-0.15009514027453122,0,0,0,0
-0.1072585946626591,0.046660629768290135,-0.07048028027453122,0,0,0,0
-0.1259748346626591,0.09241212076829013,0.09615997972546877,0,0,0,0
-0.0400630786626591,0.06363385576829013,-0.08118842427453124,0,0,0,0
-0.0400630786626591,0.06363385576829013,-0.08118842427453124,0,0,0,0
-0.0400630786626591,0.06363385576829013,-0.08118842427453124,0,0,0,0
0.16470262533734087,0.028369799768290127,0.011699001725468776,0,0,0,0
0.0538403653373409,-0.08790146023170987,-0.17391283027453122,0,0,0,0
-0.18029373466265913,-0.12168577423170987,0.058792239725468785,0,0,0,0
-0.18029373466265913,-0.12168577423170987,0.058792239725468785,0,0,0,0
-0.09570635166265912,-0.03783467023170987,0.013237695725468773,0,0,0,0
0.1168769053373409,0.007434795468290129,-0.009282238774531226,0,0,0,0
0.12010957533734087,0.06846221176829013,-0.18467114027453124,0,0,0,0
0.05899354533734089,-0.0024980732317098717,-0.053259606274531225,0,0,0,0
-0.0407452426626591,-0.11019752423170986,0.09797303972546877,0,0,0,0
-0.0407452426626591,-0.11019752423170986,0.09797303972546877,0,0,0,0
-0.1772174246626591,-0.14269486423170988,0.12367744972546879,0,0,0,0
-0.027443392662659105,-0.017972647231709875,0.031640676725468775,0,0,0,0
0.039496819337340894,0.0038066093682901287,-0.08017368027453123,0,0,0,0
0.021725480337340897,0.011022707768290127,0.12686671972546879,0,0,0,0
0.021725480337340897,0.011022707768290127,0.12686671972546879,0,0,0,0
0.04843255533734089,-0.06215019823170986,-0.016307778674531224,0,0,0,0
-0.0011463958626591053,-0.058912824231709876,-0.07349593027453123,0,0,0,0
-0.0011463958626591053,-0.058912824231709876,-0.07349593027453123,0,0,0,0
-0.027066214662659103,-0.05809800023170987,-0.027039940274531226,0,0,0,0
-0.041940291662659106,-0.039106559231709866,0.06326441972546877,0,0,0,0
0.023190705337340897,-0.037328332231709865,0.0001459881254687748,0,0,0,0
0.0547474053373409,-0.015887132231709872,0.005081276725468774,0,0,0,0
0.0547474053373409,-0.015887132231709872,0.005081276725468774,0,0,0,0
0.009169022337340894,-0.02531769223170987,-0.12182853027453124,0,0,0,0
-0.11923988466265911,-0.06314835423170988,0.09068217972546877,0,0,0,0
0.08113843533734089,-0.0008577282317098717,-0.07862107027453123,0,0,0,0
0.08113843533734089,-0.0008577282317098717,-0.07862107027453123,0,0,0,0
0.013314263337340898,-0.004419397831709872,0.07506427972546878,0,0,0,0
-0.0402378876626591,0.03326575576829013,0.005038551725468775,0,0,0,0
-0.007597907162659106,0.04255351576829013,-0.034691234274531225,0,0,0,0
0.0417963193373409,0.004410040768290128,-0.03771426227453122,0,0,0,0
-0.009518893362659105,-0.03384081123170987,0.033043233725468774,0,0,0,0
-0.009518893362659105,-0.03384081123170987,0.033043233725468774,0,0,0,0
0.04247953133734089,-0.025437924231709874,0.018284933725468775,0,0,0,0
0.04247953133734089,-0.025437924231709874,0.018284933725468775,0,0,0,0
0.05236112533734089,-0.039846741231709865,0.02652874472546878,0,0,0,0
0.05236112533734089,-0.039846741231709865,0.02652874472546878,0,0,0,0
0.003012005337340894,-0.03304337423170987,0.09014506972546878,0,0,0,0
-0.07394932066265911,-0.01587020723170987,0.03577715572546877,0,0,0,0
-0.03195999466265911,0.0023768399782901285,-0.04038301227453122,0,0,0,0
0.08432122933734089,0.006454873568290128,-0.027488680274531226,0,0,0,0
0.029485432337340897,-0.03962059023170987,-0.12159332027453124,0,0,0,0
0.029004113337340896,-0.04377832423170987,0.007956079725468773,0,0,0,0
-0.018378909662659107,-0.043353757231709866,0.07320320972546876,0,0,0,0
-0.11962555466265912,-0.020467853231709875,-0.03274664427453122,0,0,0,0
-0.0704832846626591,-0.0005836184317098711,-0.03614177227453123,0,0,0,0
0.09020444533734089,-0.006711539231709871,-0.024048586274531228,0,0,0,0
0.08448030133734089,-0.07474278723170986,-0.09451861027453123,0,0,0,0
0.0358781973373409,-0.06816436423170986,0.018048552725468774,0,0,0,0
0.0358781973373409,-0.06816436423170986,0.018048552725468774,0,0,0,0
0.0358781973373409,-0.06816436423170986,0.018048552725468774,0,0,0,0
-0.11229732466265911,0.04775996876829013,-0.04125038027453122,0,0,0,0
-0.021125967662659104,0.03089700976829013,-0.011761780274531225,0,0,0,0
0.028417125337340893,-0.03233440723170987,-0.04687546027453122,0,0,0,0
0.028417125337340893,-0.03233440723170987,-0.04687546027453122,0,0,0,0
0.025087277337340896,-0.0026029940317098717,-0.06598833327453123,0,0,0,0
-0.0609469246626591,0.014288285768290129,0.015802816725468776,0,0,0,0
-0.0609469246626591,0.014288285768290129,0.015802816725468776,0,0,0,0
-0.07202461466265911,-0.024228904231709876,0.011881141725468773,0,0,0,0
-0.07202461466265911,-0.024228904231709876,0.011881141725468773,0,0,0,0
0.019078080337340896,-0.07447496023170987,0.022306625725468775,0,0,0,0
0.002422444337340895,-0.01332586923170987,0.0010420007254687757,0,0,0,0
-0.020004351662659105,0.04575906176829013,0.022609809725468773,0,0,0,0
-0.0436044546626591,0.05921648176829013,-0.04174142627453122,0,0,0,0
-0.030335124662659106,0.03333671776829013,-0.09331064027453123,0,0,0,0
-0.011430724262659106,-0.05136895423170987,0.045751789725468776,0,0,0,0
-0.011430724262659106,-0.05136895423170987,0.045751789725468776,0,0,0,0
-0.016863520662659105,-0.04110621123170987,0.09527488972546877,0,0,0,0
-0.0037584144026591056,0.013061315268290128,0.018892363725468774,0,0,0,0
-0.0037584144026591056,0.013061315268290128,0.018892363725468774,0,0,0,0
-0.0038083869326591057,0.01296367076829013,0.018672232725468772,0,0,0,0
0.03672191333734089,-0.06078595423170988,0.06001920972546878,0,0,0,0
0.010743825337340893,-0.03541308623170987,-0.023096604274531224,0,0,0,0
-0.016435225662659106,-0.007708650231709871,-0.05560571727453122,0,0,0,0
-0.016435225662659106,-0.007708650231709871,0.00012985912546877466,0,0,0,0
-0.022153074662659103,0.01953302376829013,0.04534946972546878,0,0,0,0
-0.0615409686626591,0.010793721768290129,-0.003566952274531225,0,0,0,0
-0.0615409686626591,0.010793721768290129,-0.003566952274531225,0,0,0,0
0.07772161233734089,-0.025100189231709875,0.006455664725468776,0,0,0,0
0.07772161233734089,-0.025100189231709875,0.006455664725468776,0,0,0,0
0.004279343337340894,0.003994238768290128,-0.04271611727453122,0,0,0,0
-0.0586876706626591,-0.005526977231709872,0.03694930472546878,0,0,0,0
-0.0586876706626591,-0.005526977231709872,0.03694930472546878,0,0,0,0
-0.08051727466265911,-0.04908434423170987,0.08074991972546877,0,0,0,0
0.015388695337340896,-0.05464099023170987,-0.013717813874531224,0,0,0,0
0.0798868353373409,-0.016341543231709874,0.03133834972546878,0,0,0,0
0.0798868353373409,-0.016341543231709874,0.03133834972546878,0,0,0,0
-0.06765907466265911,0.02288879476829013,0.05083204972546878,0,0,0,0
-0.0654784046626591,0.019969868768290128,0.019168607725468776,0,0,0,0
0.011867348337340895,-0.02945622123170987,0.008269039725468774,0,0,0,0
0.07348643933734089,-0.05710521423170987,0.003952221725468775,0,0,0,0
0.07348643933734089,-0.05710521423170987,0.003952221725468775,0,0,0,0
0.05126334833734089,-0.049934220231709875,-0.03319782727453122,0,0,0,0
0.05126334833734089,-0.049934220231709875,-0.03319782727453122,0,0,0,0
-0.0763121446626591,-0.03121393923170987,0.03145310172546877,0,0,0,0
-0.1103672846626591,-0.015038931231709874,0.06872648472546877,0,0,0,0
-0.1103672846626591,-0.015038931231709874,0.06872648472546877,0,0,0,0
-0.1103672846626591,-0.015038931231709874,0.06872648472546877,0,0,0,0
0.07621967033734088,-0.05062675423170987,-0.0011688902745312256,0,0,0,0
0.1065900953373409,-0.06429641423170987,-0.10466604027453122,0,0,0,0
0.1018438453373409,-0.04393013123170987,-0.022086353274531224,0,0,0,0
0.030678479337340893,-0.017043548231709872,0.07266229972546877,0,0,0,0
-0.08787315466265912,0.007324350368290129,-0.0006140068745312255,0,0,0,0
-0.021853812662659105,0.02650263376829013,0.008617703725468773,0,0,0,0
-0.021853812662659105,0.02650263376829013,0.008617703725468773,0,0,0,0
0.08108722533734089,-0.07223021923170987,0.029392829725468774,0,0,0,0
0.08108722533734089,-0.07223021923170987,0.029392829725468774,0,0,0,0
-0.07635753966265911,-0.02689990423170987,0.0001102137254687741,0,0,0,0
0.0481908003373409,0.01586547576829013,0.053903179725468785,0,0,0,0
0.07091819533734088,0.004246348568290129,-0.056755526274531225,0,0,0,0
-0.09791668466265911,-0.03185510023170987,-0.011936254874531226,0,0,0,0
-0.09791668466265911,-0.03185510023170987,-0.011936254874531226,0,0,0,0
0.0492280153373409,-0.002411794231709872,-0.09308343727453124,0,0,0,0
0.12495099533734089,-0.01510449023170987,-0.04830784327453123,0,0,0,0
0.09542028133734089,-0.03419733623170987,-0.011590273674531226,0,0,0,0
-0.0820897896626591,-0.021512281231709875,0.07838289972546877,0,0,0,0
0.019096676337340895,-0.04326099123170987,0.007410780725468775,0,0,0,0
-0.039443572662659104,0.01644069576829013,0.031008629725468775,0,0,0,0
0.006130234337340894,0.022309678768290132,-0.021255155274531225,0,0,0,0
-0.039443572662659104,0.01644069576829013,0.031008629725468775,0,0,0,0
0.037271611337340894,-0.04641013723170987,0.017206017725468772,0,0,0,0
0.08117639533734089,-0.05134966423170987,-0.011199457974531226,0,0,0,0
0.08117639533734089,-0.05134966423170987,-0.011199457974531226,0,0,0,0
0.0502197453373409,-0.02155646623170987,0.011544756725468775,0,0,0,0
-0.0590911706626591,0.04004611976829013,0.014848641725468775,0,0,0,0
0.019381253337340896,-0.010426121231709872,0.027137509725468776,0,0,0,0
0.039056125337340895,-0.01228916623170987,-0.000291879274531226,0,0,0,0
0.04973756533734089,-0.01057385723170987,-0.04885952027453123,0,0,0,0
-0.0350711666626591,-0.013494801231709869,0.012016753725468773,0,0,0,0
0.0309469383373409,-0.007614510831709871,0.019154171725468776,0,0,0,0
0.0309469383373409,-0.007614510831709871,0.019154171725468776,0,0,0,0
-0.0461077526626591,-0.03509057723170987,-0.024014361274531226,0,0,0,0
-0.04615171766265911,-0.03476687023170987,0.08566224972546878,0,0,0,0
-0.017927630662659105,-0.11621785423170987,0.08110058972546877,0,0,0,0
0.009207932337340893,-0.08587161423170987,-0.04344595227453122,0,0,0,0
0.009207932337340893,-0.08587161423170987,-0.04344595227453122,0,0,0,0
0.004655186337340894,0.07104381576829012,-0.08006118027453123,0,0,0,0
-0.055438404662659105,0.0037489478682901285,0.04145011172546877,0,0,0,0
-0.055438404662659105,0.0037489478682901285,0.04145011172546877,0,0,0,0
-0.031220610662659104,0.05365813976829013,0.014967243725468773,0,0,0,0
0.013000313337340894,-0.05332552723170987,0.018691459725468776,0,0,0,0
0.04500009233734089,-0.04059391023170987,0.032270912725468774,0,0,0,0
0.011980359337340894,0.0022158031282901287,-0.022963448274531225,0,0,0,0
0.022313135337340896,0.014716416768290129,-0.010466535474531226,0,0,0,0
0.07696372533734089,-0.009316694231709872,0.012964968725468772,0,0,0,0
0.06464130133734089,-0.0077776782317098715,0.04196385572546878,0,0,0,0
0.021272580337340898,0.02355287076829013,0.022777739725468774,0,0,0,0
0.021272580337340898,0.02355287076829013,0.022777739725468774,0,0,0,0
-0.0518719516626591,0.006251985268290129,-0.017693264774531224,0,0,0,0
-0.012215693662659104,-0.07789485423170987,0.016820578725468775,0,0,0,0
-0.012215693662659104,-0.07789485423170987,0.016820578725468775,0,0,0,0
0.05542976033734089,-0.02779504623170987,-0.07549980427453123,0,0,0,0
-0.014898760662659105,0.023592502768290127,-0.06122921027453122,0,0,0,0
