acc_x,acc_y,acc_z,gyro_x,gyro_y,gyro_z,label
-0.1258673546626591,0.03880208176829013,-0.030411531274531226,0,0,0,0
0.16688634533734087,0.012443185268290129,-0.024565960274531225,0,0,0,0
0.059600085337340895,0.00964893776829013,-0.048766453274531225,0,0,0,0
0.059600085337340895,0.00964893776829013,-0.048766453274531225,0,0,0,0
-0.017146952662659105,-0.014610093231709873,-0.05296805027453123,0,0,0,0
-0.054543574662659106,-0.04531342923170987,0.0061336557254687745,0,0,0,0
-0.15541256466265913,0.055012945768290133,-0.04389061027453122,0,0,0,0
-0.15541256466265913,0.055012945768290133,-0.04389061027453122,0,0,0,0
0.030886189337340893,0.07103369876829013,-0.10197157027453123,0,0,0,0
0.03666011533734089,0.020399487768290127,-0.09899407027453123,0,0,0,0
0.03666011533734089,0.020399487768290127,-0.09899407027453123,0,0,0,0
-0.0601914246626591,0.0053788249682901286,-0.08547425027453123,0,0,0,0
-0.1388860546626591,0.10834490576829013,-0.010897727274531225,0,0,0,0
-0.1388860546626591,0.10834490576829013,-0.010897727274531225,0,0,0,0
-0.1388860546626591,0.10834490576829013,-0.010897727274531225,0,0,0,0
-0.1236765746626591,0.07897422976829013,-0.003973312674531226,0,0,0,0
-0.055437074662659104,0.062230712768290126,0.019535569725468774,0,0,0,0
-0.055437074662659104,0.062230712768290126,0.019535569725468774,0,0,0,0
-0.03791530866265911,-0.007312023231709873,0.023780201725468773,0,0,0,0
0.012808339337340893,-0.03690320223170987,-0.057083900274531224,0,0,0,0
0.012808339337340893,-0.03690320223170987,-0.057083900274531224,0,0,0,0
-0.06044281466265911,0.037325757768290134,-0.049755700274531224,0,0,0,0
-0.08686264466265911,0.11979592576829014,-0.03132361927453123,0,0,0,0
-0.09329908466265911,0.10330273576829013,0.007071988725468774,0,0,0,0
-0.09329908466265911,0.10330273576829013,0.007071988725468774,0,0,0,0
-0.05735700866265911,0.04451735976829013,-0.037487050274531225,0,0,0,0
-0.0067807036626591054,-0.01749848123170987,-0.05183021627453122,0,0,0,0
0.006535546337340895,-0.021595126231709873,-0.05672256527453122,0,0,0,0
-0.049562247662659105,0.028707802768290124,-0.011214549874531226,0,0,0,0
-0.1019573046626591,0.09968848576829013,0.002737407325468775,0,0,0,0
-0.0733988596626591,0.11556678576829012,0.0025601787254687742,0,0,0,0
0.014338986337340896,0.07079229576829013,-0.007969518044531226,0,0,0,0
0.014338986337340896,0.07079229576829013,-0.007969518044531226,0,0,0,0
0.039165703337340894,0.04554138776829013,-0.003089924274531226,0,0,0,0
0.061382785337340894,0.026044392768290132,-0.04314558027453123,0,0,0,0
0.061382785337340894,0.026044392768290132,-0.04314558027453123,0,0,0,0
-0.0602342446626591,0.050387685768290134,-0.028822334274531226,0,0,0,0
-0.1454871046626591,0.10405463576829013,0.04732204572546878,0,0,0,0
-0.1454871046626591,0.10405463576829013,0.04732204572546878,0,0,0,0
-0.024287874662659106,0.02596761976829013,0.021458826725468776,0,0,0,0
-0.024287874662659106,0.02596761976829013,0.021458826725468776,0,0,0,0
-0.024287874662659106,0.02596761976829013,0.021458826725468776,0,0,0,0
0.1315297253373409,0.02511462276829013,-0.016521306274531224,0,0,0,0
0.07309686533734089,0.09694532576829014,-0.008906324274531224,0,0,0,0
-0.044229394662659106,0.10536383576829013,-0.015172870274531226,0,0,0,0
-0.10631121466265911,0.05011006976829013,0.004742674725468775,0,0,0,0
-0.0406528316626591,0.007399753168290129,-0.03642649227453122,0,0,0,0
-0.0406528316626591,0.007399753168290129,-0.03642649227453122,0,0,0,0
0.0603774253373409,0.03276508176829013,-0.03258039527453122,0,0,0,0
0.11788417533734089,0.02031643176829013,-0.027774222274531225,0,0,0,0
-0.061503680662659106,-0.0016011532317098715,0.0018163847254687735,0,0,0,0
-0.061503680662659106,-0.0016011532317098715,0.0018163847254687735,0,0,0,0
-0.061503680662659106,-0.0016011532317098715,0.0018163847254687735,0,0,0,0
0.07112237533734089,-0.009489684831709871,0.03329878272546878,0,0,0,0
0.14129726533734088,-0.027961659231709873,-0.018574662274531226,0,0,0,0
0.06459838533734089,-0.05065113823170987,-0.020639665274531226,0,0,0,0
-0.045392114662659105,-0.046733694231709866,-0.017225654274531224,0,0,0,0
-0.06254404466265912,0.007845044768290128,-0.007742889266531225,0,0,0,0
0.1078910953373409,0.0035339598682901287,0.01663284772546877,0,0,0,0
0.1078910953373409,0.0035339598682901287,0.01663284772546877,0,0,0,0
0.2043543953373409,-0.031197166231709872,-0.001821573274531225,0,0,0,0
-0.034897120662659105,-0.05124868423170986,-0.006062455474531225,0,0,0,0
-0.12256248466265911,-0.049708878231709865,-0.006158490474531225,0,0,0,0
-0.12256248466265911,-0.049708878231709865,-0.006158490474531225,0,0,0,0
0.23972589533734087,-0.006516164231709871,-0.017192216274531227,0,0,0,0
0.2486961553373409,-0.054108607231709877,-0.03352937227453122,0,0,0,0
0.025683228337340897,-0.05332382823170987,-0.04295010027453122,0,0,0,0
-0.09813764866265912,-0.028202074231709874,0.013855127725468774,0,0,0,0
0.2320161953373409,-0.08428115823170987,-0.021924217274531227,0,0,0,0
0.2320161953373409,-0.08428115823170987,-0.021924217274531227,0,0,0,0
0.10288926533734088,-0.05104624423170987,-0.04302452327453122,0,0,0,0
-0.0963044006626591,-0.029962360231709867,-0.04752568727453122,0,0,0,0
-0.0963044006626591,-0.029962360231709867,-0.04752568727453122,0,0,0,0
-0.2566560146626591,0.020012623768290126,-0.06985081027453123,0,0,0,0
-0.2566560146626591,0.020012623768290126,-0.06985081027453123,0,0,0,0
0.0376200833373409,-0.09744836023170987,0.020322505725468773,0,0,0,0
-0.16064670466265912,0.020247632768290127,0.06388178272546877,0,0,0,0
-0.16064670466265912,0.020247632768290127,0.06388178272546877,0,0,0,0
-0.1340035246626591,-0.004932224231709872,0.06269585372546878,0,0,0,0
0.0029457253373408954,-0.05155974023170987,0.028977654725468777,0,0,0,0
-0.044786150662659105,-0.044432842231709874,-0.04216363027453122,0,0,0,0
-0.15343387466265912,0.006970072268290129,-0.008116574624531225,0,0,0,0
-0.1450893246626591,0.06840168876829013,0.0052866857254687755,0,0,0,0
-0.1450893246626591,0.06840168876829013,0.0052866857254687755,0,0,0,0
0.12970506533734089,-0.06488415423170987,0.0056393907254687755,0,0,0,0
0.12970506533734089,-0.06488415423170987,0.0056393907254687755,0,0,0,0
0.12970506533734089,-0.06488415423170987,0.0056393907254687755,0,0,0,0
0.12970506533734089,-0.06488415423170987,0.0056393907254687755,0,0,0,0
-0.06557224466265911,0.04676616576829013,0.04954025572546878,0,0,0,0
-0.10098598766265912,0.02351805576829013,0.054098529725468775,0,0,0,0
-0.10098598766265912,0.02351805576829013,0.054098529725468775,0,0,0,0
0.06370155033734089,-0.04527251723170987,-0.002481205774531225,0,0,0,0
0.06370155033734089,-0.04527251723170987,-0.002481205774531225,0,0,0,0
0.11287213533734089,-0.03283277723170987,-0.012736935974531224,0,0,0,0
0.08008386533734088,0.0021210257782901284,-0.03595461427453122,0,0,0,0
-0.06701715766265912,-0.015079992231709869,-0.04227293327453122,0,0,0,0
-0.06701715766265912,-0.015079992231709869,-0.04227293327453122,0,0,0,0
-0.013211997162659105,-0.04107251123170987,-0.036856933274531226,0,0,0,0
0.07665044533734089,-0.030112778231709873,0.0048585697254687745,0,0,0,0
0.07665044533734089,-0.030112778231709873,0.0048585697254687745,0,0,0,0
0.0398826753373409,0.021978229768290128,0.018664579725468776,0,0,0,0
-0.0314124896626591,0.035633945768290126,0.03601377472546878,0,0,0,0
-0.032377894662659105,-0.03384730223170987,0.028841399725468776,0,0,0,0
0.0327193423373409,-0.05174918423170987,0.010153059725468774,0,0,0,0
0.06596805533734089,-0.024868834231709873,-0.042088290274531225,0,0,0,0
0.020277611337340896,0.0012918178682901286,-0.07069649027453123,0,0,0,0
-0.0598193946626591,0.0062640017682901285,-0.07281631027453123,0,0,0,0
-0.0598193946626591,0.0062640017682901285,-0.07281631027453123,0,0,0,0
-0.0598193946626591,0.0062640017682901285,-0.07281631027453123,0,0,0,0
0.043123642337340895,-0.009927844231709872,-0.024197300274531226,0,0,0,0
0.043123642337340895,-0.009927844231709872,-0.024197300274531226,0,0,0,0
0.10106641533734088,-0.017655229231709875,-0.014135177274531226,0,0,0,0
0.007962815337340893,0.010709989768290129,0.026978759725468777,0,0,0,0
-0.056669884662659105,0.017151510768290128,0.04011360972546878,0,0,0,0
-0.06053007466265911,0.02888298076829013,0.04821245472546878,0,0,0,0
-0.06053007466265911,0.02888298076829013,0.04821245472546878,0,0,0,0
-0.06053007466265911,0.02888298076829013,0.04821245472546878,0,0,0,0
-0.06053007466265911,0.02888298076829013,0.04821245472546878,0,0,0,0
0.049447171337340896,-0.006094252631709872,-0.039909024274531225,0,0,0,0
0.10603324533734089,-0.030389380231709867,-0.033626862274531225,0,0,0,0
-0.017833407662659107,0.03467240376829013,-0.05782794527453123,0,0,0,0
-0.0717832406626591,0.04597790876829013,-0.029288728274531224,0,0,0,0
-0.05225723466265911,0.0044481222682901285,-0.028475650274531226,0,0,0,0
-0.05225723466265911,0.0044481222682901285,-0.028475650274531226,0,0,0,0
-0.0010598021626591052,-0.026114392231709867,-0.000699229274531225,0,0,0,0
0.040644757337340895,-0.029307371231709872,0.014639858725468774,0,0,0,0
-0.018316348662659108,0.006456423268290129,-0.028631015274531227,0,0,0,0
-0.1529755446626591,0.04275026376829013,0.0003036307254687754,0,0,0,0
0.0457204983373409,0.0019017104882901286,0.03566907972546878,0,0,0,0
-0.0429700686626591,0.06146069176829013,0.02430936572546877,0,0,0,0
-0.043175871662659106,0.060195585768290136,0.023690704725468772,0,0,0,0
-0.043175871662659106,0.060195585768290136,0.023690704725468772,0,0,0,0
-0.08123911466265911,0.10872817576829014,0.003894941725468775,0,0,0,0
-0.08123911466265911,0.10872817576829014,0.003894941725468775,0,0,0,0
0.035609261337340894,-0.009101587231709871,-0.03153509627453122,0,0,0,0
-0.03392532666265911,-0.03447092723170987,-0.03666644827453122,0,0,0,0
0.035609261337340894,-0.009101587231709871,-0.03153509627453122,0,0,0,0
-0.03392532666265911,-0.03447092723170987,-0.03666644827453122,0,0,0,0
-0.03392532666265911,-0.03447092723170987,-0.03666644827453122,0,0,0,0
-0.1443457446626591,0.025865763768290133,-0.023060400274531226,0,0,0,0
-0.1932102046626591,0.11133400576829013,0.031035284725468775,0,0,0,0
-0.09804991066265911,0.08303636576829013,0.043414585725468774,0,0,0,0
0.09311753933734089,-0.03577732423170987,-0.005306072574531225,0,0,0,0
0.05113908533734089,-0.03509396223170987,-0.019958169774531225,0,0,0,0
0.05113908533734089,-0.03509396223170987,-0.019958169774531225,0,0,0,0
0.05113908533734089,-0.03509396223170987,-0.019958169774531225,0,0,0,0
0.05113908533734089,-0.03509396223170987,-0.019958169774531225,0,0,0,0
-0.0979755246626591,-0.006635087231709871,-0.017391069274531226,0,0,0,0
-0.2254407746626591,0.023980242768290132,0.0002399247254687752,0,0,0,0
-0.21618646466265912,0.016653025768290128,0.0009272617254687749,0,0,0,0
-0.2254407746626591,0.023980242768290132,0.0002399247254687752,0,0,0,0
0.03739282333734089,-0.02794544023170987,0.0009445592254687741,0,0,0,0
0.03739282333734089,-0.02794544023170987,0.0009445592254687741,0,0,0,0
-0.0592257346626591,-0.007789665231709871,0.024580232725468772,0,0,0,0
-0.06828029966265911,0.04075137376829013,0.019050889725468777,0,0,0,0
0.0022652786373408944,-0.06325153023170986,-0.032815666274531224,0,0,0,0
0.0022652786373408944,-0.06325153023170986,-0.032815666274531224,0,0,0,0
-0.03573005966265911,-0.01678621123170987,-0.017047722674531224,0,0,0,0
-0.026695998662659107,0.03509650276829013,0.03499781372546878,0,0,0,0
0.016071717337340894,-0.023324524231709866,0.019047204725468773,0,0,0,0
0.03965484333734089,0.0005757813682901285,0.019549539725468777,0,0,0,0
-0.0008669692626591054,0.04649301776829013,-0.003032346274531225,0,0,0,0
