acc_x,acc_y,acc_z,gyro_x,gyro_y,gyro_z,label
0.18500320533734088,-0.004664223231709872,-0.13464740027453123,0,0,0,0
0.3283700253373409,0.0026152078882901286,0.019861439725468773,0,0,0,0
0.3283700253373409,0.0026152078882901286,0.019861439725468773,0,0,0,0
0.08018304533734089,-0.07405483123170988,-0.19679293027453124,0,0,0,0
-0.3105187746626591,0.04792962576829013,0.15033502972546875,0,0,0,0
-0.3105187746626591,0.04792962576829013,0.15033502972546875,0,0,0,0
0.017223946337340895,-0.02004387223170987,-0.013354308974531225,0,0,0,0
0.017223946337340895,-0.02004387223170987,-0.013354308974531225,0,0,0,0
0.19588700533734088,-0.02543754823170987,-0.06330414527453122,0,0,0,0
0.2940482253373409,-0.05997524823170987,-0.13398859027453125,0,0,0,0
0.09560815533734088,-0.04492603223170987,-0.12945899027453123,0,0,0,0
0.09560815533734088,-0.04492603223170987,-0.12945899027453123,0,0,0,0
-0.17032011466265912,-0.006167205231709872,0.039754126725468776,0,0,0,0
-0.30629690466265913,0.027054770768290125,0.19538506972546876,0,0,0,0
-0.30629690466265913,0.027054770768290125,0.19538506972546876,0,0,0,0
-0.1254693846626591,-0.017653965231709874,0.14030165972546876,0,0,0,0
0.2647391453373409,-0.03555217023170987,-0.20124342027453124,0,0,0,0
0.2647391453373409,-0.03555217023170987,-0.20124342027453124,0,0,0,0
-0.16594160466265911,-0.01547972023170987,-0.08908778027453122,0,0,0,0
-0.18608988466265913,-0.01578732523170987,0.18812986972546877,0,0,0,0
-0.2365304746626591,0.0025837604682901285,0.18564490972546877,0,0,0,0
0.23710796533734088,-0.03339610423170987,-0.26914758027453123,0,0,0,0
0.23710796533734088,-0.03339610423170987,-0.26914758027453123,0,0,0,0
0.027912919337340893,0.022808480768290125,-0.027924509274531224,0,0,0,0
-0.1457087346626591,-0.09430387423170987,0.13008776972546876,0,0,0,0
-0.06831157966265912,0.025762713768290126,-0.016961105274531225,0,0,0,0
0.1187067153373409,0.04409887276829013,-0.014429171274531225,0,0,0,0
0.16437360533734088,0.028563273768290126,-0.07782215627453123,0,0,0,0
0.0428550883373409,0.02238490776829013,-0.10208946027453122,0,0,0,0
-0.033381731662659106,-0.01010229323170987,0.020597235725468774,0,0,0,0
-0.0680256686626591,-0.053820937231709866,0.11035051972546878,0,0,0,0
-0.16074970466265912,0.03374652276829013,-0.03883565227453122,0,0,0,0
-0.017828448662659105,0.06425926576829012,-0.013628788274531225,0,0,0,0
0.0976617953373409,0.015584579768290129,-0.0031591847745312254,0,0,0,0
0.06721278833734089,-0.048681878231709864,-0.07849073027453123,0,0,0,0
0.0530892553373409,-0.06561123423170988,-0.0013818932745312245,0,0,0,0
-0.11395576466265911,0.057870119768290124,0.05335005372546878,0,0,0,0
-0.052922041662659104,0.012463203768290129,0.014304510725468771,0,0,0,0
-0.052922041662659104,0.012463203768290129,0.014304510725468771,0,0,0,0
0.06406223033734089,-0.07587298423170988,-0.027623184274531226,0,0,0,0
0.06619569533734089,-0.13673312423170988,0.014670769725468776,0,0,0,0
-0.004408820282659105,-0.1397686542317099,0.022610049725468775,0,0,0,0
-0.0671233016626591,-0.051050124231709876,0.047931293725468775,0,0,0,0
-0.09643495866265911,0.02412263176829013,0.04516188972546878,0,0,0,0
0.12177669533734087,-0.06179177123170987,-0.007977052074531225,0,0,0,0
-0.014200862062659105,0.02373202476829013,-0.04428743827453122,0,0,0,0
-0.1751852846626591,0.023083761768290127,0.05229843972546878,0,0,0,0
-0.13230379466265912,-0.010451808231709872,0.07528942972546877,0,0,0,0
0.11178733533734089,-0.07093757923170987,0.019287912725468773,0,0,0,0
0.11178733533734089,-0.07093757923170987,0.019287912725468773,0,0,0,0
-0.012741740662659106,-0.03221317823170987,-0.04877960227453122,0,0,0,0
-0.1404261446626591,-0.04383712423170987,0.04845899972546877,0,0,0,0
-0.1404261446626591,-0.04383712423170987,0.04845899972546877,0,0,0,0
-0.1404261446626591,-0.04383712423170987,0.04845899972546877,0,0,0,0
0.10798675533734088,-0.06169421023170987,-0.0035337522745312253,0,0,0,0
0.10798675533734088,-0.06169421023170987,-0.0035337522745312253,0,0,0,0
0.10798675533734088,-0.06169421023170987,-0.0035337522745312253,0,0,0,0
0.07343084033734089,-0.006676613831709871,-0.04731958627453122,0,0,0,0
-0.1504783446626591,-0.005974253231709871,0.045654992725468774,0,0,0,0
-0.1328727546626591,-0.033702596231709875,0.06335589972546876,0,0,0,0
-0.006253607862659105,-0.07069664423170988,0.04129013972546878,0,0,0,0
0.0795476123373409,-0.07620715423170986,0.008572570725468773,0,0,0,0
0.025384633337340895,0.00937368616829013,-0.04847185027453122,0,0,0,0
0.025384633337340895,0.00937368616829013,-0.04847185027453122,0,0,0,0
-0.18928321466265913,0.032372075768290126,0.06498255572546877,0,0,0,0
-0.09816921466265911,-0.013140699231709872,0.10970636972546878,0,0,0,0
0.11800080533734089,-0.04445447023170987,-0.08459108627453123,0,0,0,0
0.1500808853373409,-0.016537794231709875,-0.10743642627453123,0,0,0,0
0.11486617533734089,0.0011280958682901286,-0.06228054027453122,0,0,0,0
0.11486617533734089,0.0011280958682901286,-0.06228054027453122,0,0,0,0
-0.1453437646626591,-0.026464754231709874,0.10215096972546876,0,0,0,0
-0.1453437646626591,-0.026464754231709874,0.10215096972546876,0,0,0,0
-0.06054838466265911,-0.052052968231709865,0.058888519725468776,0,0,0,0
0.0913059393373409,-0.04010781923170987,-0.018713255274531226,0,0,0,0
0.1428211353373409,0.007241026068290128,-0.10817357027453124,0,0,0,0
0.1099812653373409,0.04567012876829013,-0.17292212027453124,0,0,0,0
0.04503099133734089,0.04451689176829013,-0.05653141327453122,0,0,0,0
-0.19309538466265913,-0.027284490231709875,0.09212086672546878,0,0,0,0
-0.1290015046626591,-0.04206663923170987,0.10919391972546878,0,0,0,0
0.054062955337340894,-0.025204762231709872,0.07065516972546877,0,0,0,0
0.14682037533734088,-0.019095632231709868,-0.14410076027453123,0,0,0,0
0.054693715337340895,-0.004468938231709871,-0.017834539774531227,0,0,0,0
-0.08028105066265911,-0.02459706423170987,0.10736231972546878,0,0,0,0
-0.1585672246626591,-0.03904115423170987,0.07121454972546877,0,0,0,0
-0.1585672246626591,-0.03904115423170987,0.07121454972546877,0,0,0,0
0.03733903533734089,-0.02255816723170987,-0.025843496274531228,0,0,0,0
0.10541745533734088,0.019023612768290128,-0.09512659027453123,0,0,0,0
0.10541745533734088,0.019023612768290128,-0.09512659027453123,0,0,0,0
0.0812905453373409,-0.004836806231709872,-0.008226700174531225,0,0,0,0
-0.0616478746626591,-0.04583627823170987,0.004326788725468774,0,0,0,0
-0.15298164466265912,-0.016934656231709873,0.11278412972546878,0,0,0,0
-0.15298164466265912,-0.016934656231709873,0.11278412972546878,0,0,0,0
0.1024418953373409,0.034571722768290125,-0.23548698027453124,0,0,0,0
0.1797085953373409,0.005299300368290128,-0.06136939027453123,0,0,0,0
-0.1350042146626591,-0.025468116231709866,0.03753107672546878,0,0,0,0
-0.1350042146626591,-0.025468116231709866,0.03753107672546878,0,0,0,0
-0.11831329466265912,0.003989652268290129,0.07285378372546877,0,0,0,0
-0.021299536662659102,0.0010289017682901286,0.05731456972546877,0,0,0,0
0.06645204533734089,0.0007242505682901286,-0.054563910274531224,0,0,0,0
0.018434254337340895,-0.049114244231709875,-0.018079455274531225,0,0,0,0
0.018434254337340895,-0.049114244231709875,-0.018079455274531225,0,0,0,0
-0.07145708466265911,-0.0015881146317098718,0.07664447972546877,0,0,0,0
-0.03586157166265911,0.016375145768290127,-0.06447804727453123,0,0,0,0
0.07648860533734089,0.011417231768290128,-0.03327802027453122,0,0,0,0
0.07648860533734089,0.011417231768290128,-0.03327802027453122,0,0,0,0
0.07648860533734089,0.011417231768290128,-0.03327802027453122,0,0,0,0
0.045363537337340894,-0.014039519231709872,-0.03444982327453122,0,0,0,0
-0.09760416466265912,-0.02104176823170987,0.05089231572546878,0,0,0,0
-0.11348951466265911,0.017705166768290127,-0.003957648574531226,0,0,0,0
-0.023115332662659104,0.0011514489682901284,-0.03462903027453122,0,0,0,0
0.0805762453373409,-0.024308308231709874,-0.03494321827453122,0,0,0,0
0.07994939533734088,-0.04190671423170987,-0.038251370274531224,0,0,0,0
0.0655173453373409,-0.03182181423170987,-0.028693028274531227,0,0,0,0
0.05137616533734089,-0.03249708423170987,-0.006813259474531225,0,0,0,0
-0.020743258662659105,-0.01814449423170987,-0.007740445476531225,0,0,0,0
-0.040320761662659105,-0.010319998231709872,0.017704276725468773,0,0,0,0
0.0631104653373409,0.018175298768290125,-0.004659302574531225,0,0,0,0
0.0631104653373409,0.018175298768290125,-0.004659302574531225,0,0,0,0
-0.0031679946326591056,0.02159957376829013,0.037479524725468776,0,0,0,0
-0.0031679946326591056,0.02159957376829013,0.037479524725468776,0,0,0,0
-0.07788151066265911,-0.022814386231709873,-0.009867747174531226,0,0,0,0
-0.027424319662659104,-0.03496595423170987,0.0074143457254687755,0,0,0,0
-0.017849238662659105,-0.006210696231709872,-0.013954837674531224,0,0,0,0
0.026481835337340894,-0.005975222231709872,0.0047485157254687745,0,0,0,0
0.024604718337340892,0.010243219768290129,-0.045027680274531225,0,0,0,0
0.024604718337340892,0.010243219768290129,-0.045027680274531225,0,0,0,0
0.008216301737340895,0.03275555376829013,-0.016599793774531225,0,0,0,0
-0.033597262662659104,-0.03290314623170987,0.008125011725468773,0,0,0,0
-0.03361395166265911,0.005211651768290129,0.03764703672546878,0,0,0,0
-0.03361395166265911,0.005211651768290129,0.03764703672546878,0,0,0,0
-0.03361395166265911,0.005211651768290129,0.03764703672546878,0,0,0,0
0.0314785153373409,0.015133562768290127,-0.009304149474531224,0,0,0,0
0.0314785153373409,0.015133562768290127,-0.009304149474531224,0,0,0,0
0.011476819337340894,0.04605635176829013,-0.06663949027453123,0,0,0,0
-0.009774382662659106,0.04463701576829013,-0.034935672274531225,0,0,0,0
-0.08313997466265911,0.019211420768290126,0.027587185725468772,0,0,0,0
-0.1350880446626591,-0.008204382231709871,-0.028079577274531226,0,0,0,0
-0.0632130446626591,-0.056803074231709876,0.010810129725468774,0,0,0,0
0.005212132337340895,-0.059764879231709866,0.009580997725468773,0,0,0,0
0.007915894337340895,0.053780895768290135,0.006272546725468773,0,0,0,0
0.07003566533734089,0.06670382576829013,0.05253165972546878,0,0,0,0
0.0629866753373409,0.02736851276829013,-0.05347307527453122,0,0,0,0
0.0629866753373409,0.02736851276829013,-0.05347307527453122,0,0,0,0
0.0409540333373409,-0.0023936207317098715,-0.028613944274531226,0,0,0,0
-0.031478674662659106,-0.050284337231709865,0.010032658725468775,0,0,0,0
-0.09094169866265911,0.013585922768290128,0.04600570672546878,0,0,0,0
-0.06610821066265911,0.007900187768290129,0.04545830972546878,0,0,0,0
-0.06610821066265911,0.007900187768290129,0.04545830972546878,0,0,0,0
0.06562806533734089,0.006034252468290129,0.015283696725468775,0,0,0,0
0.07691890533734089,0.02687561576829013,-0.047476943274531225,0,0,0,0
0.042185705337340895,0.032146251768290134,-0.08450382527453124,0,0,0,0
0.008216587837340895,0.032953852768290125,0.035988287725468776,0,0,0,0
0.008216587837340895,0.032953852768290125,0.035988287725468776,0,0,0,0
-0.027975352662659103,-0.024105506231709872,-0.08639551027453123,0,0,0,0
0.025480191337340898,-0.02262272223170987,-0.09885735027453123,0,0,0,0
0.025480191337340898,-0.02262272223170987,-0.09885735027453123,0,0,0,0
0.025480191337340898,-0.02262272223170987,-0.09885735027453123,0,0,0,0
-0.055832944662659104,-0.01536313823170987,0.04245981972546878,0,0,0,0
-0.03288648866265911,-0.052116754231709875,0.0009127661254687757,0,0,0,0
0.014268319337340893,-0.04908528423170987,0.014853088725468776,0,0,0,0
0.06832153033734088,-0.02693316423170987,0.029982089725468775,0,0,0,0
0.06952859533734089,0.010031622768290128,-0.018150957274531226,0,0,0,0
-0.032877142662659106,0.06278656576829013,0.006221799725468776,0,0,0,0
-0.03297088966265911,0.06229890076829013,0.0057175917254687755,0,0,0,0
-0.1007717946626591,-0.07524766423170987,-0.010373182674531226,0,0,0,0
