acc_x,acc_y,acc_z,gyro_x,gyro_y,gyro_z,label
-0.09942472466265911,0.004890102568290129,0.033624715725468775,0,0,0,0
-0.11929453466265912,-0.013474255231709873,0.05374752972546878,0,0,0,0
-0.052438147662659106,-0.051948529231709874,0.025305853725468775,0,0,0,0
0.025712887337340895,-0.07666246423170987,0.02881415972546877,0,0,0,0
0.025712887337340895,-0.07666246423170987,0.02881415972546877,0,0,0,0
-0.06506737066265911,0.05797275976829014,0.02198109472546877,0,0,0,0
-0.06506737066265911,0.05797275976829014,0.02198109472546877,0,0,0,0
-0.1200631946626591,0.013040858768290128,0.009389386725468775,0,0,0,0
0.0765295193373409,-0.11300918423170986,-0.029918547274531224,0,0,0,0
0.0765295193373409,-0.11300918423170986,-0.029918547274531224,0,0,0,0
0.0765295193373409,-0.11300918423170986,-0.029918547274531224,0,0,0,0
0.10892554533734089,-0.09773024423170988,-0.04984781327453122,0,0,0,0
0.0394600073373409,-0.057883984231709866,-0.044706596274531225,0,0,0,0
-0.1882544846626591,0.06993234576829013,0.06263219972546877,0,0,0,0
-0.1882544846626591,0.06993234576829013,0.06263219972546877,0,0,0,0
0.1641281253373409,-0.07151876023170987,0.014431123725468772,0,0,0,0
0.1641281253373409,-0.07151876023170987,0.014431123725468772,0,0,0,0
0.1797994753373409,-0.05740616823170987,0.014518563725468774,0,0,0,0
0.1797994753373409,-0.05740616823170987,0.014518563725468774,0,0,0,0
-0.0022477942626591054,0.012726825768290128,0.03151441672546878,0,0,0,0
-0.0022477942626591054,0.012726825768290128,0.03151441672546878,0,0,0,0
-0.16741202466265911,0.007994825068290128,0.05424676372546878,0,0,0,0
-0.10260475466265911,-0.010881954231709871,0.027765289725468777,0,0,0,0
-0.10260475466265911,-0.010881954231709871,0.027765289725468777,0,0,0,0
0.08336650533734088,-0.01624216423170987,-0.0020596459745312254,0,0,0,0
0.14907237533734088,-0.025744110231709867,-0.047153580274531225,0,0,0,0
0.0275582473373409,-0.0057761012317098705,-0.025185026274531227,0,0,0,0
0.0275582473373409,-0.0057761012317098705,-0.025185026274531227,0,0,0,0
-0.047093564662659106,-5.494903170987159e-05,0.008944795725468774,0,0,0,0
-0.0464303806626591,0.01422960176829013,-0.009751428674531225,0,0,0,0
-0.0464303806626591,0.01422960176829013,-0.009751428674531225,0,0,0,0
-0.016904719662659107,-0.008222418231709872,-0.014359326674531225,0,0,0,0
-0.022471888662659104,0.0015010540282901286,0.02539388372546877,0,0,0,0
-0.022471888662659104,0.0015010540282901286,0.02539388372546877,0,0,0,0
0.012896267337340894,-0.00855447623170987,0.011630736725468774,0,0,0,0
0.04430572233734089,0.008958059768290129,-0.030377401274531226,0,0,0,0
0.07330562533734089,0.01356614276829013,-0.021060528274531226,0,0,0,0
-0.024057467662659107,-0.0056973152317098714,-0.016205193274531224,0,0,0,0
-0.024057467662659107,-0.0056973152317098714,-0.016205193274531224,0,0,0,0
-0.07860582466265911,-0.014260404231709873,0.005711571725468775,0,0,0,0
-0.022747691662659105,-0.012765055231709873,0.007965020725468775,0,0,0,0
0.09839507533734089,0.0031700675682901284,0.006596659725468774,0,0,0,0
0.13646699533734089,0.01722289976829013,-0.016962500274531226,0,0,0,0
0.10068093533734088,0.023721855768290133,-0.027285208274531226,0,0,0,0
0.04868594533734089,0.015251892768290127,0.011261026725468772,0,0,0,0
-0.030143530662659106,0.0019555990482901285,0.016375241725468774,0,0,0,0
-0.030143530662659106,0.0019555990482901285,0.016375241725468774,0,0,0,0
-0.030143530662659106,0.0019555990482901285,0.016375241725468774,0,0,0,0
-0.055361824662659105,0.031053513768290124,0.017158679725468775,0,0,0,0
0.1305684253373409,0.06193862576829013,-0.043059183274531225,0,0,0,0
0.1305684253373409,0.06193862576829013,-0.043059183274531225,0,0,0,0
0.0509449153373409,0.04503462976829013,-0.016289599274531226,0,0,0,0
-0.10685213466265911,0.0023427431382901285,0.04537675972546878,0,0,0,0
-0.10685213466265911,0.0023427431382901285,0.04537675972546878,0,0,0,0
-0.10685213466265911,0.0023427431382901285,0.04537675972546878,0,0,0,0
0.06890422533734089,0.10811623576829013,-0.015702445874531224,0,0,0,0
0.2125379753373409,0.11251061576829012,-0.003616984274531225,0,0,0,0
0.1558922953373409,0.08268277576829013,-0.03433823027453122,0,0,0,0
0.022441975337340894,0.04804518876829013,-0.0024794532745312254,0,0,0,0
-0.08297842466265912,0.01411567376829013,0.014616058725468773,0,0,0,0
-0.10494201466265911,0.02835617576829013,0.03510279172546878,0,0,0,0
-0.06940601466265911,0.07007374576829013,0.03566276972546877,0,0,0,0
0.020517460337340893,0.09220809576829013,-0.021867986274531223,0,0,0,0
0.11842204533734088,0.06557548576829013,-0.006193794374531225,0,0,0,0
0.04292585033734089,0.09173705576829012,0.008684800725468771,0,0,0,0
-0.050543004662659104,0.02294887976829013,0.016055915725468772,0,0,0,0
-0.0716724246626591,0.030202657768290127,0.028738519725468776,0,0,0,0
0.051566998337340894,0.08631941576829012,-0.007452561004531225,0,0,0,0
0.051566998337340894,0.08631941576829012,-0.007452561004531225,0,0,0,0
0.0014020127373408943,0.016719073768290127,0.01722156872546877,0,0,0,0
-0.019495566662659104,0.07281681576829013,-0.0030658379745312258,0,0,0,0
0.025953405337340897,0.11677225576829012,0.007987586725468773,0,0,0,0
0.025953405337340897,0.11677225576829012,0.007987586725468773,0,0,0,0
-0.011766989662659107,0.029540509768290132,0.028275989725468773,0,0,0,0
0.09390775533734089,0.01332411216829013,0.012684337725468772,0,0,0,0
0.09466020533734089,0.05182608376829013,-0.012965191974531224,0,0,0,0
0.09466020533734089,0.05182608376829013,-0.012965191974531224,0,0,0,0
0.0037654083373408935,0.07003200576829012,0.0007613167254687742,0,0,0,0
-0.020768530662659105,0.03206350276829013,-0.008192099674531226,0,0,0,0
-0.009407981062659106,0.0031636659682901286,-0.005854357774531225,0,0,0,0
0.021312253337340895,7.301016829012845e-05,-0.03678276027453122,0,0,0,0
0.021312253337340895,7.301016829012845e-05,-0.03678276027453122,0,0,0,0
-0.0590740996626591,0.07829439076829013,-0.009986408074531225,0,0,0,0
-0.0590740996626591,0.07829439076829013,-0.009986408074531225,0,0,0,0
0.006236378337340895,0.00921066476829013,-0.012624646774531225,0,0,0,0
0.006236378337340895,0.00921066476829013,-0.012624646774531225,0,0,0,0
0.006236378337340895,0.00921066476829013,-0.012624646774531225,0,0,0,0
0.03625661533734089,0.0031664912682901284,-0.03160330827453123,0,0,0,0
0.08146163533734088,0.03396174376829013,-0.023178191274531225,0,0,0,0
0.08146163533734088,0.03396174376829013,-0.023178191274531225,0,0,0,0
0.0012707871373408945,0.06130781176829013,0.019022945725468775,0,0,0,0
-0.08106897466265911,0.05509513076829013,0.024334616725468775,0,0,0,0
-0.0864431246626591,0.0068709079682901285,0.025585319725468774,0,0,0,0
-0.0864431246626591,0.0068709079682901285,0.025585319725468774,0,0,0,0
0.012065045337340895,0.016488927768290126,-0.013058771274531224,0,0,0,0
0.0336836973373409,0.03169215376829013,0.013976071725468771,0,0,0,0
0.0336836973373409,0.03169215376829013,0.013976071725468771,0,0,0,0
0.0336836973373409,0.03169215376829013,0.013976071725468771,0,0,0,0
0.0336836973373409,0.03169215376829013,0.013976071725468771,0,0,0,0
-0.07986677466265911,0.04734367176829013,0.04364552972546878,0,0,0,0
-0.026227744662659105,-0.021787911231709874,0.03607876972546877,0,0,0,0
0.03700620333734089,-0.012544244231709871,-0.018619330274531228,0,0,0,0
0.030289475337340895,0.01746445376829013,-0.008332212314531226,0,0,0,0
-0.025545008662659102,0.011957890268290128,-0.004539300574531226,0,0,0,0
-0.025545008662659102,0.011957890268290128,-0.004539300574531226,0,0,0,0
-0.13240040466265912,-0.02067839423170987,0.014137570725468774,0,0,0,0
-0.024788172662659105,-0.03941331423170987,0.018677322725468775,0,0,0,0
-0.024788172662659105,-0.03941331423170987,0.018677322725468775,0,0,0,0
0.0406645933373409,0.010165340168290129,-0.006777907974531225,0,0,0,0
-0.0610766246626591,0.005815047468290129,0.010246525725468771,0,0,0,0
-0.10198047966265911,0.019505381768290128,0.05294503372546878,0,0,0,0
0.005924431337340895,0.015642005768290126,0.03598863672546878,0,0,0,0
0.11269103533734089,-0.03303086123170987,0.005607758725468774,0,0,0,0
0.14661666533734088,-0.06628131423170987,-0.003147263874531225,0,0,0,0
0.14661666533734088,-0.06628131423170987,-0.003147263874531225,0,0,0,0
0.04407512333734089,-0.054251700231709866,-0.0060279622745312254,0,0,0,0
-0.1405339046626591,0.028274780768290125,0.04740510972546878,0,0,0,0
-0.1405339046626591,0.028274780768290125,0.04740510972546878,0,0,0,0
-0.1054837046626591,0.007899433768290129,0.021686203725468776,0,0,0,0
0.17063237533734088,-0.04582300723170987,-0.03878487027453122,0,0,0,0
0.14224664533734088,-0.00021786043170987125,-0.03875359427453122,0,0,0,0
0.14224664533734088,-0.00021786043170987125,-0.03875359427453122,0,0,0,0
-0.14104488466265913,-0.029606014231709867,0.026713855725468773,0,0,0,0
-0.14104488466265913,-0.029606014231709867,0.026713855725468773,0,0,0,0
-0.0770077546626591,-0.07220204423170988,0.03876756972546878,0,0,0,0
0.0453889053373409,-0.04647670423170987,0.019132135725468773,0,0,0,0
0.12283841533734088,0.0020585481882901286,0.0011300307254687733,0,0,0,0
0.12283841533734088,0.0020585481882901286,0.0011300307254687733,0,0,0,0
0.007326714337340894,0.004448324868290129,0.019005879725468775,0,0,0,0
-0.09585989466265911,0.0029331629082901284,0.05133508972546878,0,0,0,0
-0.12220896466265911,-0.0033617909317098715,0.04006631972546878,0,0,0,0
-0.12220896466265911,-0.0033617909317098715,0.04006631972546878,0,0,0,0
0.07603351533734089,-0.04573513823170987,-0.005096180774531225,0,0,0,0
0.07603351533734089,-0.04573513823170987,-0.005096180774531225,0,0,0,0
0.07603351533734089,-0.04573513823170987,-0.005096180774531225,0,0,0,0
-0.052320940662659104,0.010466772768290129,0.016251031725468774,0,0,0,0
-0.09357460466265911,0.012015551768290129,-0.014588053274531224,0,0,0,0
0.0014210863373408942,-0.03298311823170987,-0.003623415574531225,0,0,0,0
0.0014210863373408942,-0.03298311823170987,-0.003623415574531225,0,0,0,0
0.0370906033373409,-0.024834638231709873,-0.016729094274531224,0,0,0,0
-0.024578364662659103,0.011800879768290128,-0.012788547574531225,0,0,0,0
-0.024578364662659103,0.011800879768290128,-0.012788547574531225,0,0,0,0
-0.0607664896626591,0.014626306768290128,0.026798726725468774,0,0,0,0
0.10692025533734088,-0.040197914231709875,-0.0018237307745312256,0,0,0,0
0.10692025533734088,-0.040197914231709875,-0.0018237307745312256,0,0,0,0
0.10692025533734088,-0.040197914231709875,-0.0018237307745312256,0,0,0,0
0.10155984533734089,-0.038880151231709875,-0.011922051074531224,0,0,0,0
0.04212648133734089,-0.009911912231709872,0.006917850725468776,0,0,0,0
-0.12886951466265908,0.02114108276829013,0.030154235725468773,0,0,0,0
-0.12886951466265908,0.02114108276829013,0.030154235725468773,0,0,0,0
-0.11566894466265912,-0.002171700731709872,0.022239045725468774,0,0,0,0
0.08942596133734089,-0.013398760231709871,-0.011144931674531226,0,0,0,0
0.08942596133734089,-0.013398760231709871,-0.011144931674531226,0,0,0,0
0.030486218337340894,-0.013940113231709872,0.016888682725468774,0,0,0,0
0.030486218337340894,-0.013940113231709872,0.016888682725468774,0,0,0,0
0.030486218337340894,-0.013940113231709872,0.016888682725468774,0,0,0,0
0.030486218337340894,-0.013940113231709872,0.016888682725468774,0,0,0,0
0.011176793337340892,-0.010213237231709872,-0.016259552274531224,0,0,0,0
0.09875079533734088,-0.010322302231709872,-0.0018752888745312253,0,0,0,0
0.05616771533734089,0.004363972368290128,0.003944913725468776,0,0,0,0
0.06518451533734089,0.005285650968290129,-0.0007174092745312246,0,0,0,0
0.06518451533734089,0.005285650968290129,-0.0007174092745312246,0,0,0,0
0.1949602253373409,-0.020274644231709875,-0.03493601827453122,0,0,0,0
0.030873505337340894,0.024792558768290125,0.011566553725468772,0,0,0,0
0.030873505337340894,0.024792558768290125,0.011566553725468772,0,0,0,0
-0.0503072576626591,0.03517898976829013,0.036047966725468776,0,0,0,0
0.0549567383373409,-0.01774807523170987,-0.016600270274531224,0,0,0,0
0.0549567383373409,-0.01774807523170987,-0.016600270274531224,0,0,0,0
0.0549567383373409,-0.01774807523170987,-0.016600270274531224,0,0,0,0
0.08393336933734089,0.02868660776829013,-0.02489633127453123,0,0,0,0
-0.0009586173626591056,0.04277806376829013,-0.0020085588745312258,0,0,0,0
-0.0009586173626591056,0.04277806376829013,-0.0020085588745312258,0,0,0,0
-0.011954291662659104,0.0028320376682901285,-0.006676436974531226,0,0,0,0
-0.011954291662659104,0.0028320376682901285,-0.006676436974531226,0,0,0,0
0.06863567033734089,0.03269502576829013,-0.014071627274531226,0,0,0,0
0.0885870153373409,0.019140428768290127,-0.04643858827453122,0,0,0,0
0.028158013337340894,0.0057117407682901284,-0.023828937274531226,0,0,0,0
