acc_x,acc_y,acc_z,gyro_x,gyro_y,gyro_z,label
0.028020302337340895,0.0031980369682901287,0.021172873725468774,0,0,0,0
-0.08042352966265912,0.04348427576829013,-0.03957537027453122,0,0,0,0
-0.1478849246626591,0.08058888576829012,0.046686619725468774,0,0,0,0
0.07495414533734089,-0.04216282023170987,-0.15451687027453123,0,0,0,0
0.07495414533734089,-0.04216282023170987,-0.15451687027453123,0,0,0,0
-0.15852564466265912,0.03354787276829013,-0.012955255874531224,0,0,0,0
-0.08856571466265911,0.014882686768290127,-0.036721678274531225,0,0,0,0
0.021515005337340895,0.01039510576829013,0.05187055972546877,0,0,0,0
0.06832381933734089,0.03037438776829013,-0.022684915274531224,0,0,0,0
-0.014079936162659106,0.019536152768290127,0.05329680272546878,0,0,0,0
-0.021020205662659105,-0.0036901484317098717,0.06495099472546877,0,0,0,0
-0.021020205662659105,-0.0036901484317098717,0.06495099472546877,0,0,0,0
-0.014787467162659104,0.02323752076829013,-0.007579751354531226,0,0,0,0
-0.014787467162659104,0.02323752076829013,-0.007579751354531226,0,0,0,0
-0.012350257062659107,-0.021354894231709873,0.07178176972546876,0,0,0,0
-0.012350257062659107,-0.021354894231709873,0.07178176972546876,0,0,0,0
0.001183716637340894,0.008846707768290128,-0.008686544074531226,0,0,0,0
0.001183716637340894,0.008846707768290128,-0.008686544074531226,0,0,0,0
0.0677835653373409,0.04892477576829013,-0.03787746027453122,0,0,0,0
0.005389611337340895,0.06620596076829012,0.00025874222546877577,0,0,0,0
0.043864361337340896,-0.022917354231709874,-0.016836597274531226,0,0,0,0
0.043864361337340896,-0.022917354231709874,-0.016836597274531226,0,0,0,0
0.032016485337340896,-0.003692893231709872,-0.007215769634531226,0,0,0,0
0.032016485337340896,-0.003692893231709872,-0.007215769634531226,0,0,0,0
-0.0013515311626591058,-0.006283144231709871,-0.011636741474531226,0,0,0,0
0.0620137353373409,0.04001233576829013,0.009433869725468776,0,0,0,0
0.022488325337340895,0.04146013876829013,-0.015472729274531225,0,0,0,0
0.022488325337340895,0.04146013876829013,-0.015472729274531225,0,0,0,0
-0.03981016466265911,0.02745218576829013,-0.0021795882745312247,0,0,0,0
-0.09646938466265911,0.016049713768290126,0.010116879725468774,0,0,0,0
-0.1160693046626591,0.008133124268290128,-0.042179592274531226,0,0,0,0
-0.015937884662659104,0.004325548268290128,0.043771019725468784,0,0,0,0
0.052877442337340895,-4.302223170987111e-05,0.021281186725468772,0,0,0,0
-0.008225806362659106,0.05412693076829014,0.025994305725468774,0,0,0,0
-0.05983417766265911,0.06656573576829013,-0.021822269274531226,0,0,0,0
0.022542875337340895,-0.028768741231709867,0.031425449725468776,0,0,0,0
0.024711339337340894,0.0033581052682901285,-0.001424677674531226,0,0,0,0
0.002278344037340894,-0.02428215123170987,0.06801704572546877,0,0,0,0
0.002278344037340894,-0.02428215123170987,0.06801704572546877,0,0,0,0
0.0622215453373409,-0.019896310231709867,0.06027698372546878,0,0,0,0
0.0622215453373409,-0.019896310231709867,0.06027698372546878,0,0,0,0
-0.035369094662659105,-0.01417717123170987,0.005550359725468774,0,0,0,0
-0.035369094662659105,-0.01417717123170987,0.005550359725468774,0,0,0,0
0.02848798533734089,-0.05626882423170987,0.053914349725468776,0,0,0,0
0.09352485533734088,-0.057732034231709875,0.021019385725468773,0,0,0,0
0.09352485533734088,-0.057732034231709875,0.021019385725468773,0,0,0,0
0.04327604033734089,0.01491050876829013,-0.057932223274531215,0,0,0,0
-0.030761702662659107,0.05964528576829013,0.018514762725468772,0,0,0,0
-0.030761702662659107,0.05964528576829013,0.018514762725468772,0,0,0,0
-0.020302947662659106,0.0013444577682901284,-0.07217836527453123,0,0,0,0
-0.0560876686626591,0.018820259768290125,-0.009187538974531225,0,0,0,0
-0.0560876686626591,0.018820259768290125,-0.009187538974531225,0,0,0,0
-0.03862074166265911,0.015112987768290129,-0.028807367274531225,0,0,0,0
-0.0473290286626591,0.005674010968290129,-0.022949458274531223,0,0,0,0
0.017744175337340896,-0.04858171923170987,-0.008062274794531225,0,0,0,0
0.040394703337340895,-0.02843693423170987,-0.015751834274531223,0,0,0,0
0.024361340337340893,0.02873550376829013,-0.008303268274531225,0,0,0,0
0.024361340337340893,0.02873550376829013,-0.008303268274531225,0,0,0,0
-0.0586376986626591,0.04080298576829013,-0.052160770274531226,0,0,0,0
-0.0586376986626591,0.04080298576829013,-0.052160770274531226,0,0,0,0
-0.0654207046626591,0.0004707132682901286,-0.06246326727453123,0,0,0,0
-0.029882510662659106,-0.030024964231709868,0.07301114672546877,0,0,0,0
-0.04295376166265911,-0.04147914023170987,0.08130415972546877,0,0,0,0
-0.04295376166265911,-0.04147914023170987,0.08130415972546877,0,0,0,0
0.037008873337340896,0.07827902576829013,-0.11852359027453122,0,0,0,0
0.0482702413373409,0.07210659576829014,-0.022051401274531226,0,0,0,0
0.0482702413373409,0.07210659576829014,-0.022051401274531226,0,0,0,0
-0.0294908366626591,0.04052770776829013,0.07362815972546877,0,0,0,0
-0.0650959806626591,-0.09921456423170986,-0.03416772627453123,0,0,0,0
-0.0650959806626591,-0.09921456423170986,-0.03416772627453123,0,0,0,0
-0.0640398846626591,-0.0019215579317098715,0.06736051272546877,0,0,0,0
-0.0640398846626591,-0.0019215579317098715,0.06736051272546877,0,0,0,0
0.0517646953373409,-0.009942048231709872,-0.18555667027453124,0,0,0,0
0.0529454393373409,-0.011917350231709872,0.017013184725468773,0,0,0,0
-0.034887297662659106,-0.01582788923170987,0.09781725972546876,0,0,0,0
-0.034887297662659106,-0.01582788923170987,0.09781725972546876,0,0,0,0
-0.09053133466265911,-0.015306730231709873,0.10371583972546877,0,0,0,0
-0.06426475866265911,0.01190141976829013,0.06696484972546876,0,0,0,0
-0.048984797662659105,0.05599383576829013,-0.15973314027453123,0,0,0,0
0.004921452337340894,-0.05769094423170987,-0.039696254274531224,0,0,0,0
0.06605102533734089,-0.054573364231709866,0.06828464972546877,0,0,0,0
0.08155872033734088,-0.11667775423170987,-0.04870478027453122,0,0,0,0
-0.0741303286626591,0.06916047976829012,0.07802025972546876,0,0,0,0
0.012906949337340896,0.03773372176829013,-0.12214068027453123,0,0,0,0
0.012906949337340896,0.03773372176829013,-0.12214068027453123,0,0,0,0
0.0583608783373409,-0.1261627942317099,0.07401318972546878,0,0,0,0
0.018042675337340896,0.004449934268290129,0.07896204472546878,0,0,0,0
0.019104973337340896,0.16374041576829013,-0.020945199274531225,0,0,0,0
0.019104973337340896,0.16374041576829013,-0.020945199274531225,0,0,0,0
0.044314400337340895,0.05709434176829013,-0.07045765027453123,0,0,0,0
0.0472113753373409,-0.04464426623170987,0.008545390725468775,0,0,0,0
0.0472113753373409,-0.04464426623170987,0.008545390725468775,0,0,0,0
0.013508335337340895,-0.09312298823170988,0.06456509972546877,0,0,0,0
-0.0020925360626591056,0.011882977768290129,0.053990272725468774,0,0,0,0
0.018659894337340895,0.07049936076829012,-0.07305626027453123,0,0,0,0
0.018659894337340895,0.07049936076829012,-0.07305626027453123,0,0,0,0
0.09985248533734088,-0.007710517231709872,-0.029386516274531226,0,0,0,0
-0.002295477962659106,-0.07130498423170988,0.06973530972546878,0,0,0,0
-0.002295477962659106,-0.07130498423170988,0.06973530972546878,0,0,0,0
-0.07462776466265911,-0.08582000423170986,0.06743105972546877,0,0,0,0
0.0610802813373409,0.08123527176829012,0.06117650972546878,0,0,0,0
0.10392877533734088,0.11769564576829013,-0.22779651027453124,0,0,0,0
-0.04409845666265911,-0.024767100231709867,0.019189421725468774,0,0,0,0
-0.04409845666265911,-0.024767100231709867,0.019189421725468774,0,0,0,0
-0.1716812946626591,-0.04103654023170987,0.024233613725468773,0,0,0,0
-0.015748293662659105,0.04686342776829013,0.09598997972546877,0,0,0,0
-0.015748293662659105,0.04686342776829013,0.09598997972546877,0,0,0,0
0.07359925933734088,0.11573118576829013,0.021357063725468774,0,0,0,0
0.12387086533734087,0.06824982576829013,-0.2510292602745312,0,0,0,0
0.015534417337340897,-0.01631728023170987,0.05711746672546878,0,0,0,0
-0.1884400646626591,-0.042127257231709875,0.07844736972546877,0,0,0,0
-0.028359015662659106,-0.027262657231709876,0.12592316972546877,0,0,0,0
-0.028359015662659106,-0.027262657231709876,0.12592316972546877,0,0,0,0
-0.25180967466265913,0.06463072976829012,0.11855691972546878,0,0,0,0
0.1725924653373409,0.011005200768290127,0.012790421725468775,0,0,0,0
0.09683467533734089,-0.08997634023170986,-0.09100541027453123,0,0,0,0
0.09683467533734089,-0.08997634023170986,-0.09100541027453123,0,0,0,0
0.044741932337340896,0.01920648276829013,-0.05973254627453122,0,0,0,0
0.15277787533734088,-0.018409518231709873,-0.10041931427453124,0,0,0,0
0.1256236253373409,-0.02273033423170987,0.005241559725468774,0,0,0,0
0.1256236253373409,-0.02273033423170987,0.005241559725468774,0,0,0,0
-0.1997452146626591,0.07419926576829013,-0.03513405427453122,0,0,0,0
0.04427215233734089,-0.02261141223170987,0.04982667372546878,0,0,0,0
0.08841783233734088,-0.047336628231709865,0.014260671725468774,0,0,0,0
-0.11456650466265912,0.02148766676829013,0.044549195725468775,0,0,0,0
0.05896217033734089,0.03614507976829013,-0.017330749274531224,0,0,0,0
0.0586301013373409,-0.012940321231709871,-0.020269961274531224,0,0,0,0
0.03613807333734089,-0.017739130231709872,0.04832174972546877,0,0,0,0
-0.08536766466265912,0.0021712054382901284,7.327672546877505e-05,0,0,0,0
-0.08536766466265912,0.0021712054382901284,7.327672546877505e-05,0,0,0,0
0.09485561033734088,0.02786974076829013,0.005543927725468773,0,0,0,0
0.09485561033734088,0.02786974076829013,0.005543927725468773,0,0,0,0
-0.036510642662659104,0.02150622576829013,-0.06124290027453123,0,0,0,0
-0.0612265446626591,-0.0016240950317098716,0.08018614972546877,0,0,0,0
0.07174293233734089,-0.027522420231709872,-0.10208450027453123,0,0,0,0
0.07174293233734089,-0.027522420231709872,-0.10208450027453123,0,0,0,0
-0.048710711662659105,-0.02172486723170987,0.0005678997254687746,0,0,0,0
-0.025183566662659106,-0.06893933423170988,0.04143942172546878,0,0,0,0
0.006824414337340895,0.03214019876829013,0.043345019725468774,0,0,0,0
0.006824414337340895,0.03214019876829013,0.043345019725468774,0,0,0,0
0.030904690337340897,0.04167614576829013,-0.19280065027453122,0,0,0,0
