acc_x,acc_y,acc_z,gyro_x,gyro_y,gyro_z,label
-0.023070986662659106,0.030045390768290124,0.00012635472546877486,0,0,0,0
-0.04514501866265911,0.04901557576829013,-0.004301996574531225,0,0,0,0
0.10313398533734089,-0.00977349823170987,-0.015514178274531224,0,0,0,0
0.10313398533734089,-0.00977349823170987,-0.015514178274531224,0,0,0,0
0.03380090533734089,-0.03976695423170987,-0.020439406274531224,0,0,0,0
-0.034690649662659105,-0.01253817623170987,0.06280714972546877,0,0,0,0
-0.034690649662659105,-0.01253817623170987,0.06280714972546877,0,0,0,0
-0.07817638466265911,0.01839464076829013,0.05822664972546878,0,0,0,0
0.04947396933734089,0.02340784676829013,0.010525803725468776,0,0,0,0
0.1398801053373409,-0.025607412231709877,-0.10217995027453122,0,0,0,0
0.05581781133734089,0.004861993068290129,0.019886521725468773,0,0,0,0
-0.08959730466265911,0.03255833576829013,0.022179011725468777,0,0,0,0
-0.07488849966265912,0.04257455776829013,0.06926564972546877,0,0,0,0
0.10958015533734089,-0.03205144423170987,-0.09575851727453123,0,0,0,0
0.1297984253373409,-0.02325015023170987,0.03556018272546878,0,0,0,0
-0.028765089662659105,0.03332221576829013,-0.005091734274531225,0,0,0,0
-0.08889740466265911,0.06494073576829014,0.027817313725468775,0,0,0,0
-0.06579359466265912,0.010268530768290129,-0.053731794274531224,0,0,0,0
-0.06579359466265912,0.010268530768290129,-0.053731794274531224,0,0,0,0
0.11462184533734088,0.011711183768290128,0.05907069972546878,0,0,0,0
0.08659593533734089,0.004666406368290129,-0.008092720844531226,0,0,0,0
0.08659593533734089,0.004666406368290129,-0.008092720844531226,0,0,0,0
-0.013548739662659105,0.06460133276829012,0.03288102572546878,0,0,0,0
0.017144028337340897,0.014336011268290129,-0.015195782274531226,0,0,0,0
0.017144028337340897,0.014336011268290129,-0.015195782274531226,0,0,0,0
0.017144028337340897,0.014336011268290129,-0.015195782274531226,0,0,0,0
0.027927605337340893,0.0011636649182901284,-0.033793743274531225,0,0,0,0
-0.012291701662659107,0.01531140276829013,0.10411080972546877,0,0,0,0
-0.018480189662659106,0.06651809276829014,0.07800079972546878,0,0,0,0
0.0724479853373409,0.010858485768290129,-0.050710113274531225,0,0,0,0
0.0629498653373409,0.0006710593682901285,0.061864199725468784,0,0,0,0
-0.0426059566626591,-0.004620822831709871,-0.027929766274531226,0,0,0,0
-0.07402313466265911,0.008908844768290129,-0.05225692527453122,0,0,0,0
-0.07402313466265911,0.008908844768290129,-0.05225692527453122,0,0,0,0
-0.0541024046626591,0.03931377276829013,0.08763429972546877,0,0,0,0
0.1279210253373409,-0.025608286231709868,-0.07833233627453123,0,0,0,0
0.13797570533734088,0.0031630222682901285,-0.025883825274531227,0,0,0,0
-0.09884641966265911,-0.007911389631709871,0.03732006972546877,0,0,0,0
-0.04950960466265911,-0.02786702423170987,0.011077718725468776,0,0,0,0
0.0219623723373409,0.06822387576829013,0.0012764021254687745,0,0,0,0
-0.017631705662659106,0.07957248176829014,0.006890730725468776,0,0,0,0
-0.0439852546626591,0.04050757076829013,0.016243783725468777,0,0,0,0
-0.019862826662659105,0.03472615276829013,0.08160454472546877,0,0,0,0
-0.005642207262659106,0.0012001995682901286,-0.0023665860745312253,0,0,0,0
0.032374970337340894,-0.00412041223170987,-0.06586669027453122,0,0,0,0
0.08062545533734089,0.008253682068290129,0.039019207725468776,0,0,0,0
0.08062545533734089,0.008253682068290129,0.039019207725468776,0,0,0,0
0.023900525337340897,0.053144175768290135,0.04131410572546878,0,0,0,0
0.023900525337340897,0.053144175768290135,0.04131410572546878,0,0,0,0
0.023900525337340897,0.053144175768290135,0.04131410572546878,0,0,0,0
-0.03912618966265911,0.07430538576829013,0.03785221972546878,0,0,0,0
0.0575213593373409,0.020390722768290133,0.0039599347254687745,0,0,0,0
-0.037109644662659105,0.027788168768290128,-0.015371962274531225,0,0,0,0
-0.020606024662659105,0.04747296876829013,0.08737734972546876,0,0,0,0
0.0578341653373409,0.03900689776829013,0.03407051972546878,0,0,0,0
0.0578341653373409,0.03900689776829013,0.03407051972546878,0,0,0,0
-0.07665365466265911,0.05097711776829013,-0.07159075027453124,0,0,0,0
-0.06115911766265911,0.02517050376829013,0.08249880972546877,0,0,0,0
-0.06115911766265911,0.02517050376829013,0.08249880972546877,0,0,0,0
0.028440015337340897,0.019865881768290128,-0.017481620674531226,0,0,0,0
0.10471393533734089,0.03772834576829013,-0.13921040027453124,0,0,0,0
0.10471393533734089,0.03772834576829013,-0.13921040027453124,0,0,0,0
0.05137139933734089,0.05282870576829013,0.024957422725468772,0,0,0,0
-0.05608223466265911,0.04784378776829013,0.04393631672546878,0,0,0,0
-0.08298919966265911,0.07036635576829013,0.08900921972546877,0,0,0,0
-0.0692310146626591,0.08028568576829014,-0.028768487274531226,0,0,0,0
0.018412606337340896,0.08006275576829013,-0.06350096027453123,0,0,0,0
0.11996871533734088,0.04534063076829013,-0.06461564027453122,0,0,0,0
0.0045740288373408945,-0.02526435223170987,-0.0008189392745312262,0,0,0,0
0.0045740288373408945,-0.02526435223170987,-0.0008189392745312262,0,0,0,0
-0.0941649246626591,-0.007610593231709871,0.10739277972546878,0,0,0,0
-0.0537504046626591,0.10114195976829013,-0.027417429274531228,0,0,0,0
-0.0537504046626591,0.10114195976829013,-0.027417429274531228,0,0,0,0
0.03953553833734089,0.055839139768290136,-0.12292592027453123,0,0,0,0
0.03953553833734089,0.055839139768290136,-0.12292592027453123,0,0,0,0
-0.0649131616626591,-0.014540977231709872,0.007405225725468774,0,0,0,0
-0.0838867046626591,0.008772649368290128,-0.013865466274531224,0,0,0,0
-0.026390440662659106,0.024817949768290125,0.05051219972546877,0,0,0,0
0.0017985503373408951,0.015652530768290127,-0.028643293274531224,0,0,0,0
0.014206235337340896,0.01532540176829013,-0.06805912027453122,0,0,0,0
0.025558011337340893,0.05443941576829013,0.037418143725468776,0,0,0,0
0.025558011337340893,0.05443941576829013,0.037418143725468776,0,0,0,0
-0.11494186466265913,0.027755290768290128,-0.04047500627453122,0,0,0,0
-0.07389581966265911,0.03423421976829013,0.08022999572546877,0,0,0,0
-0.04776123466265911,0.018302022768290127,0.025973085725468772,0,0,0,0
-0.022089369662659106,-0.009467357231709871,-0.03704836027453122,0,0,0,0
0.022595517337340894,0.0005786164682901288,0.00024711372546877466,0,0,0,0
-0.050065596662659105,0.04093406876829013,0.0028006477254687743,0,0,0,0
-0.045908054662659105,0.053661155768290135,-0.009364707774531226,0,0,0,0
-0.029871256662659107,0.05545563576829013,0.010826961725468775,0,0,0,0
0.014945237337340895,0.04166302576829013,-0.02904105927453123,0,0,0,0
-0.019891150662659104,0.010002248768290128,0.004585902325468774,0,0,0,0
-0.019891150662659104,0.010002248768290128,0.004585902325468774,0,0,0,0
0.004017750337340894,0.013967295768290129,-0.04621325327453122,0,0,0,0
0.004017750337340894,0.013967295768290129,-0.04621325327453122,0,0,0,0
0.06422578533734088,0.05906821576829013,-0.0026892259745312248,0,0,0,0
0.0313483403373409,0.07810346576829014,0.016214494725468775,0,0,0,0
-0.03426559766265911,0.02264589676829013,0.021585492725468773,0,0,0,0
0.0760974093373409,0.015261133768290129,-0.024754937274531225,0,0,0,0
0.0760974093373409,0.015261133768290129,-0.024754937274531225,0,0,0,0
0.09967977533734089,0.04069645776829013,-0.025904746274531227,0,0,0,0
0.09967977533734089,0.04069645776829013,-0.025904746274531227,0,0,0,0
-0.043079359662659106,0.016171586768290128,-0.07063089027453123,0,0,0,0
-0.08330848966265911,-0.008695116231709871,0.06220835972546878,0,0,0,0
-0.006643183862659106,0.011620906768290128,0.06381836972546877,0,0,0,0
-0.006643183862659106,0.011620906768290128,0.06381836972546877,0,0,0,0
0.13842708533734088,-0.001813977531709872,-0.017811580274531225,0,0,0,0
-0.10012205466265911,0.0056786571682901285,0.06078556972546877,0,0,0,0
-0.10012205466265911,0.0056786571682901285,0.06078556972546877,0,0,0,0
0.02779456833734089,0.029024082768290126,-0.015538139674531225,0,0,0,0
0.02779456833734089,0.029024082768290126,-0.015538139674531225,0,0,0,0
0.09665519533734088,-0.04058479023170987,-0.06711634027453123,0,0,0,0
0.09665519533734088,-0.04058479023170987,-0.06711634027453123,0,0,0,0
0.013814370337340898,-0.08345096423170988,0.005137102725468774,0,0,0,0
0.013814370337340898,-0.08345096423170988,0.005137102725468774,0,0,0,0
-0.09836672166265911,0.04559419776829013,0.03513892172546878,0,0,0,0
0.028168217337340894,0.029819208768290133,-0.028547485274531225,0,0,0,0
0.028168217337340894,0.029819208768290133,-0.028547485274531225,0,0,0,0
0.07493917133734089,-0.0023731607317098715,0.020189074725468773,0,0,0,0
0.042773072337340894,-0.05058192423170987,-0.07655978027453123,0,0,0,0
-0.12148540466265911,-0.00904787523170987,-0.024811287274531225,0,0,0,0
0.006032578337340894,-0.01715753023170987,0.002772717125468776,0,0,0,0
0.07051336033734089,-0.02677732923170987,-0.11099371027453123,0,0,0,0
-0.1229369946626591,0.005566020768290128,0.06542451972546877,0,0,0,0
-0.1229369946626591,0.005566020768290128,0.06542451972546877,0,0,0,0
0.0399174853373409,-0.04181216923170987,0.0046468657254687745,0,0,0,0
0.0399174853373409,-0.04181216923170987,0.0046468657254687745,0,0,0,0
-0.021216757662659104,-0.01762061923170987,0.04427855472546877,0,0,0,0
-0.10667866466265911,0.005616055768290129,0.09503761972546877,0,0,0,0
-0.15578325466265913,0.02599240176829013,0.06619228972546877,0,0,0,0
-0.08128708466265912,0.01982247976829013,0.010388569725468776,0,0,0,0
0.06572581933734088,-0.008252954231709872,0.046143655725468774,0,0,0,0
0.0975068253373409,-0.03956059123170987,-0.04663644627453122,0,0,0,0
0.034752765337340896,-0.01923179623170987,0.019682876725468777,0,0,0,0
-0.10306042066265911,0.02488370876829013,0.032467189725468776,0,0,0,0
-0.10317619466265912,0.024660158768290127,0.03178311972546878,0,0,0,0
-0.0816369846626591,0.04254804876829013,0.03447507972546878,0,0,0,0
0.11375590533734088,-0.04354843123170987,0.010919193725468773,0,0,0,0
0.11375590533734088,-0.04354843123170987,0.010919193725468773,0,0,0,0
0.060874285337340885,-0.04377800223170987,-0.03401645027453122,0,0,0,0
-0.020564158662659107,-0.021860682231709873,0.02972168172546877,0,0,0,0
-0.04280145966265911,0.03469666276829013,0.05803259972546878,0,0,0,0
0.035456195337340894,0.020298807768290128,-0.04282267827453122,0,0,0,0
0.035456195337340894,0.020298807768290128,-0.04282267827453122,0,0,0,0
0.1396411053373409,0.007751197068290128,0.0009884047254687745,0,0,0,0
0.024326817337340895,0.012939063168290127,-0.12575817027453123,0,0,0,0
-0.045577891662659104,0.0040501218682901284,-0.013551051974531225,0,0,0,0
-0.0642421546626591,-0.018456134231709873,0.14812921972546877,0,0,0,0
-0.0642421546626591,-0.018456134231709873,0.14812921972546877,0,0,0,0
0.21259071533734092,-0.01382695423170987,-0.08355918727453124,0,0,0,0
0.21259071533734092,-0.01382695423170987,-0.08355918727453124,0,0,0,0
0.11304456533734089,0.08117293176829013,-0.07549133027453123,0,0,0,0
-0.051999171662659105,0.051833175768290135,-0.08867041627453123,0,0,0,0
-0.051999171662659105,0.051833175768290135,-0.08867041627453123,0,0,0,0
-0.2155436346626591,-0.03816854923170987,0.10084882972546877,0,0,0,0
0.06747562133734089,-0.024535950231709874,-0.027110322274531227,0,0,0,0
0.23951245533734086,-0.0009119435317098716,-0.11363061027453122,0,0,0,0
0.23951245533734086,-0.0009119435317098716,-0.11363061027453122,0,0,0,0
0.1050804253373409,0.01956748076829013,-0.06383957427453123,0,0,0,0
-0.11503713466265911,-0.007462270831709871,0.014563683725468773,0,0,0,0
-0.11503713466265911,-0.007462270831709871,0.014563683725468773,0,0,0,0
-0.11503713466265911,-0.007462270831709871,0.014563683725468773,0,0,0,0
-0.1259987646626591,0.02125865076829013,0.07184537972546877,0,0,0,0
0.00015184103734089491,-0.04632692923170987,-0.06488300027453123,0,0,0,0
0.11914836533734088,-0.07935945423170987,-0.08738119027453123,0,0,0,0
