acc_x,acc_y,acc_z,gyro_x,gyro_y,gyro_z,label
-0.017215521662659106,0.040385835768290135,0.016102675725468776,0,0,0,0
-0.017215521662659106,0.040385835768290135,0.016102675725468776,0,0,0,0
0.025598445337340892,-0.02264426323170987,-0.03506537227453123,0,0,0,0
-0.0010071593626591055,-0.05140615023170987,-0.03687855727453122,0,0,0,0
-0.0010071593626591055,-0.05140615023170987,-0.03687855727453122,0,0,0,0
-0.06608455966265911,0.04230278176829013,0.014006702725468775,0,0,0,0
-0.034905322662659104,0.03117284776829013,0.03479218372546878,0,0,0,0
-0.034905322662659104,0.03117284776829013,0.03479218372546878,0,0,0,0
0.004188839737340894,-0.01185273423170987,0.012268213725468775,0,0,0,0
0.010513798337340893,-0.07213140123170987,0.003433744725468775,0,0,0,0
0.010513798337340893,-0.07213140123170987,0.003433744725468775,0,0,0,0
-0.0340815386626591,0.02987169576829013,0.019696895725468774,0,0,0,0
0.0598130383373409,0.035967445768290134,0.006472615725468774,0,0,0,0
0.04793502533734089,-0.08606505923170986,-0.056448300274531224,0,0,0,0
-0.012291701662659107,-0.11755633423170987,-0.04569402527453122,0,0,0,0
-0.012291701662659107,-0.11755633423170987,-0.04569402527453122,0,0,0,0
-0.012291701662659107,-0.11755633423170987,-0.04569402527453122,0,0,0,0
-0.06316088066265911,-0.06307529723170988,-0.005136747674531225,0,0,0,0
0.03396417333734089,0.0074426953682901285,0.03228569472546878,0,0,0,0
0.08573457533734088,-0.06693786923170987,0.0061623017254687764,0,0,0,0
-0.0022814589626591053,-0.08736096023170987,0.0004442737254687747,0,0,0,0
-0.0022814589626591053,-0.08736096023170987,0.0004442737254687747,0,0,0,0
-0.046266062662659105,-0.03739356423170987,0.013564042725468774,0,0,0,0
-0.058674604662659106,0.016973370768290127,0.04095193572546878,0,0,0,0
-0.016320784662659106,0.05153948576829013,0.008416036725468774,0,0,0,0
0.0994441153373409,-0.03168982823170987,-0.002580983974531226,0,0,0,0
-0.06770809466265912,-0.051825910231709876,-0.008143062934531224,0,0,0,0
-0.06770809466265912,-0.051825910231709876,-0.008143062934531224,0,0,0,0
0.010174099337340894,0.09837383076829014,0.030277685725468777,0,0,0,0
0.010174099337340894,0.09837383076829014,0.030277685725468777,0,0,0,0
0.010174099337340894,0.09837383076829014,0.030277685725468777,0,0,0,0
0.10552131533734088,0.06446247576829012,-0.011194200874531225,0,0,0,0
0.0712255653373409,-0.05429200423170987,-0.05352738627453122,0,0,0,0
-0.0510171726626591,-0.06266608823170987,-0.041730042274531226,0,0,0,0
-0.12208727466265912,0.01364221026829013,-0.020853956274531224,0,0,0,0
-0.10652664466265911,0.07330892176829014,0.015811697725468775,0,0,0,0
-0.10652664466265911,0.07330892176829014,0.015811697725468775,0,0,0,0
0.0866416153373409,0.011010319768290129,0.011421124725468773,0,0,0,0
0.09057265933734089,-0.08561256423170986,0.018161193725468774,0,0,0,0
0.008932225337340893,-0.043500034231709866,0.009191815725468774,0,0,0,0
-0.06674183466265912,0.09080664576829013,0.04465627972546878,0,0,0,0
-0.06674183466265912,0.09080664576829013,0.04465627972546878,0,0,0,0
-0.06674183466265912,0.09080664576829013,0.04465627972546878,0,0,0,0
0.10001336533734088,0.056704295768290135,-0.0029219940745312256,0,0,0,0
0.10658990533734089,-0.04195304423170987,-0.06144918027453123,0,0,0,0
0.0343041583373409,-0.03412509423170987,-0.030512770274531226,0,0,0,0
0.0343041583373409,-0.03412509423170987,-0.030512770274531226,0,0,0,0
-0.0373493046626591,0.07873980576829012,0.03211430772546878,0,0,0,0
-0.0373493046626591,0.07873980576829012,0.03211430772546878,0,0,0,0
0.023894515337340896,0.09552918076829013,0.026510849725468775,0,0,0,0
0.09410211533734089,0.05927227176829013,0.004411534725468774,0,0,0,0
0.09734803533734089,-0.012169402231709871,0.004767517725468775,0,0,0,0
-0.06043623466265911,-0.02806587723170987,0.009608869725468774,0,0,0,0
-0.053678687662659104,0.04655632376829013,0.02593579772546877,0,0,0,0
-0.019626410662659105,0.10286527576829013,0.009301463725468775,0,0,0,0
0.022807423337340895,0.10368319576829013,-0.02431578227453123,0,0,0,0
0.06310064033734089,0.04819184576829013,-0.041251428274531224,0,0,0,0
0.040013520337340895,-0.05056064423170986,-0.04612126027453122,0,0,0,0
-0.010641844662659106,-0.025213736231709867,-0.03863663227453122,0,0,0,0
0.03882981933734089,0.01591826176829013,0.03540329172546878,0,0,0,0
-0.0520193896626591,-0.07132125423170986,0.020966307725468772,0,0,0,0
-0.0520193896626591,-0.07132125423170986,0.020966307725468772,0,0,0,0
-0.0520193896626591,-0.07132125423170986,0.020966307725468772,0,0,0,0
-0.07367113466265911,0.004902703068290128,-0.04191550727453122,0,0,0,0
-0.07367113466265911,0.004902703068290128,-0.04191550727453122,0,0,0,0
-0.05019892066265911,0.025353867768290128,-0.0031220749745312255,0,0,0,0
-0.05019892066265911,0.025353867768290128,-0.0031220749745312255,0,0,0,0
-0.16115473466265912,0.10643264576829013,0.031730107725468776,0,0,0,0
-0.16115473466265912,0.10643264576829013,0.031730107725468776,0,0,0,0
-0.16115473466265912,0.10643264576829013,0.031730107725468776,0,0,0,0
-0.047811204662659104,0.05716302576829013,0.015458647725468774,0,0,0,0
0.08156215533734089,-0.0075820978317098706,-0.033874530274531224,0,0,0,0
0.013865391337340896,-0.051933344231709866,-0.053179760274531224,0,0,0,0
-0.14490507466265912,0.05999158076829013,0.06713845572546877,0,0,0,0
-0.14490507466265912,0.05999158076829013,0.06713845572546877,0,0,0,0
-0.14490507466265912,0.05999158076829013,0.06713845572546877,0,0,0,0
-0.14490507466265912,0.05999158076829013,0.06713845572546877,0,0,0,0
0.1841071253373409,-0.02942611423170987,0.017319123725468774,0,0,0,0
0.1841071253373409,-0.02942611423170987,0.017319123725468774,0,0,0,0
0.0337303323373409,-0.042343264231709865,-0.009177668474531225,0,0,0,0
0.0337303323373409,-0.042343264231709865,-0.009177668474531225,0,0,0,0
-0.14955795466265911,0.07748454576829013,0.01784788772546877,0,0,0,0
-0.1173592446626591,0.08688259576829013,-0.007236750474531225,0,0,0,0
-0.1173592446626591,0.08688259576829013,-0.007236750474531225,0,0,0,0
-0.1173592446626591,0.08688259576829013,-0.007236750474531225,0,0,0,0
0.09469024533734088,-0.018611675231709875,-0.04225954527453122,0,0,0,0
-0.09882696466265911,0.009631544768290128,0.008343438725468773,0,0,0,0
-0.09882696466265911,0.009631544768290128,0.008343438725468773,0,0,0,0
-0.1512348946626591,0.02829284576829013,0.04224179972546878,0,0,0,0
-0.09709022866265912,0.03664948376829013,0.055942519725468785,0,0,0,0
0.07964088133734089,0.005491704168290128,-0.010646505674531225,0,0,0,0
0.07964088133734089,0.005491704168290128,-0.010646505674531225,0,0,0,0
0.10519105533734088,-0.043803518231709866,-0.033232207274531224,0,0,0,0
-0.0638681246626591,-0.02797598223170987,-0.008062167504531226,0,0,0,0
-0.0638681246626591,-0.02797598223170987,-0.008062167504531226,0,0,0,0
0.035170571337340896,0.011854106768290129,0.016915337725468774,0,0,0,0
0.11457673533734089,-0.028716856231709872,-0.0015713885745312255,0,0,0,0
0.11457673533734089,-0.028716856231709872,-0.0015713885745312255,0,0,0,0
0.052418820337340896,-0.04955018123170987,-0.018489571274531227,0,0,0,0
0.0031248253373408934,-0.024615472231709873,0.009769789725468773,0,0,0,0
-0.06644218466265911,0.05328638576829013,0.0069346827254687755,0,0,0,0
0.06478940533734089,0.026723927768290127,0.011395935725468775,0,0,0,0
0.1542036253373409,-0.01623036223170987,0.0020322963254687737,0,0,0,0
0.11231872533734089,-0.04632406823170987,-0.023370547274531226,0,0,0,0
0.0462327153373409,-0.06767855423170986,-0.04241053627453122,0,0,0,0
0.022024743337340898,-0.06141186423170987,-0.010294039574531226,0,0,0,0
0.0354005023373409,0.06212918176829013,0.007986287725468773,0,0,0,0
0.1804870753373409,-0.09877731423170986,-0.025436600274531224,0,0,0,0
0.0354005023373409,0.06212918176829013,0.007986287725468773,0,0,0,0
0.1804870753373409,-0.09877731423170986,-0.025436600274531224,0,0,0,0
-0.06610430066265911,0.04558330176829013,-0.010279198074531225,0,0,0,0
-0.09804247466265911,0.08376727576829013,0.02215611172546877,0,0,0,0
-0.051316626662659105,0.07130764176829013,0.02523261772546877,0,0,0,0
0.0540655293373409,0.02637935876829013,0.018008093725468775,0,0,0,0
0.0540655293373409,0.02637935876829013,0.018008093725468775,0,0,0,0
0.21435892533734086,-0.06405307423170988,-0.003191693274531225,0,0,0,0
0.11411849533734089,-0.04350964423170987,0.0032182977254687746,0,0,0,0
-0.04174145066265911,-0.000885611231709871,-0.0040525749745312254,0,0,0,0
-0.10138128466265911,0.04872477576829013,0.008829824725468775,0,0,0,0
-0.011981852662659106,0.040102052768290125,0.0056483797254687764,0,0,0,0
0.04441730233734089,-0.04860125423170987,-0.0013014032745312246,0,0,0,0
0.04441730233734089,-0.04860125423170987,-0.0013014032745312246,0,0,0,0
0.04441730233734089,-0.04860125423170987,-0.0013014032745312246,0,0,0,0
0.04441730233734089,-0.04860125423170987,-0.0013014032745312246,0,0,0,0
0.008299557337340894,0.0038507644682901285,0.062359814725468775,0,0,0,0
0.04324313833734089,-0.0003812845317098714,0.03795637372546878,0,0,0,0
0.0612793153373409,-0.03929448723170987,0.006389157725468774,0,0,0,0
0.0612793153373409,-0.03929448723170987,0.006389157725468774,0,0,0,0
0.06521779533734089,-0.04761792923170987,-0.022523470274531224,0,0,0,0
-0.0037298995426591056,0.01991328576829013,0.023659257725468775,0,0,0,0
-0.0644693216626591,0.060102145768290136,0.04106719372546878,0,0,0,0
-0.0644693216626591,0.060102145768290136,0.04106719372546878,0,0,0,0
-0.0644693216626591,0.060102145768290136,0.04106719372546878,0,0,0,0
0.04614116533734089,-0.03549934023170987,0.026480285725468778,0,0,0,0
0.04523450533734089,-0.02127339223170987,-0.00020244867453122432,0,0,0,0
0.04523450533734089,-0.02127339223170987,-0.00020244867453122432,0,0,0,0
0.028592985337340893,-0.01660630023170987,0.017521075725468776,0,0,0,0
-0.021833308662659104,0.036494010768290126,0.031162529725468773,0,0,0,0
-0.021833308662659104,0.036494010768290126,0.031162529725468773,0,0,0,0
-0.021833308662659104,0.036494010768290126,0.031162529725468773,0,0,0,0
0.0564454253373409,0.03414736576829013,0.009751204725468775,0,0,0,0
0.006197659337340895,-0.018476062231709868,0.0016078757254687744,0,0,0,0
0.006197659337340895,-0.018476062231709868,0.0016078757254687744,0,0,0,0
-0.030878241662659105,0.03373315976829013,0.03665393972546878,0,0,0,0
-0.014623911662659105,0.02572653376829013,0.046835784725468774,0,0,0,0
-0.014623911662659105,0.02572653376829013,0.046835784725468774,0,0,0,0
0.0416737713373409,-0.006366413231709871,0.016683916725468772,0,0,0,0
0.0794006513373409,-0.03796396823170987,0.049010495725468776,0,0,0,0
-0.0352178416626591,0.016936642768290128,0.052250679725468784,0,0,0,0
0.021362320337340895,0.03508151776829013,0.020805209725468773,0,0,0,0
0.017735974337340893,-0.008268612231709872,-0.021833904274531225,0,0,0,0
0.005699269337340894,-0.058051317231709865,-0.0044733718745312255,0,0,0,0
0.005699269337340894,-0.058051317231709865,-0.0044733718745312255,0,0,0,0
-0.037952216662659105,-0.04694841423170987,0.009203962725468775,0,0,0,0
-0.07656124466265911,0.020018357768290126,0.010525588725468774,0,0,0,0
0.07017652233734088,-0.01938493823170987,0.018366943725468775,0,0,0,0
0.018481270337340896,-0.03288809623170987,0.023234889725468773,0,0,0,0
0.018481270337340896,-0.03288809623170987,0.023234889725468773,0,0,0,0
0.013432709337340896,-0.0011331017317098716,0.05701167472546879,0,0,0,0
-0.029615672662659104,0.046212505768290134,0.04906789472546878,0,0,0,0
-0.0035486060626591055,0.03920560576829013,0.024829356725468776,0,0,0,0
0.046873585337340894,-0.0012457425317098712,0.032035635725468775,0,0,0,0
