acc_x,acc_y,acc_z,gyro_x,gyro_y,gyro_z,label
-0.19736231466265913,0.05763180876829013,-0.051989515274531224,0,0,0,0
0.06292173133734089,-0.054312461231709866,0.03137559172546878,0,0,0,0
0.1092524653373409,-0.06937927423170986,-0.04167936627453123,0,0,0,0
0.0316568533373409,0.030287585768290125,0.014749042725468772,0,0,0,0
0.0316568533373409,0.030287585768290125,0.014749042725468772,0,0,0,0
0.08519765533734089,-0.05020385923170987,-0.10530766027453123,0,0,0,0
-0.0875175316626591,0.07479203576829013,-0.08365468527453122,0,0,0,0
-0.0875175316626591,0.07479203576829013,-0.08365468527453122,0,0,0,0
-0.0875175316626591,0.07479203576829013,-0.08365468527453122,0,0,0,0
0.008581082337340895,-0.04411068423170987,-0.042351444274531226,0,0,0,0
-0.07029493466265911,-0.011459086231709872,0.03562915772546878,0,0,0,0
-0.08757942466265911,0.03232680576829013,0.07016118972546878,0,0,0,0
0.08880645533734088,-0.055943077231709874,-0.13885923027453123,0,0,0,0
0.049066845337340896,-0.02749433223170987,0.003468064725468776,0,0,0,0
0.049066845337340896,-0.02749433223170987,0.003468064725468776,0,0,0,0
-0.0011968451626591056,-0.007180091231709871,0.05815791372546878,0,0,0,0
0.008544270337340894,-0.037195500231709866,0.043446499725468775,0,0,0,0
0.04970657033734089,0.020310992768290133,0.011624364725468773,0,0,0,0
-0.07106436066265912,0.03838429576829013,0.0025239987254687757,0,0,0,0
-0.07106436066265912,0.03838429576829013,0.0025239987254687757,0,0,0,0
-0.07106436066265912,0.03838429576829013,0.0025239987254687757,0,0,0,0
0.08804265533734089,-0.003955518731709871,-0.10397314627453122,0,0,0,0
0.0426103753373409,-0.022455284231709872,-0.06985133427453123,0,0,0,0
0.0426103753373409,-0.022455284231709872,-0.06985133427453123,0,0,0,0
-0.043227656662659104,-0.06156067823170987,0.040992144725468777,0,0,0,0
-0.11330755466265911,-0.009142714231709871,-0.023519666274531226,0,0,0,0
0.17313806533734089,-0.08474060423170987,-0.11128563027453123,0,0,0,0
0.1462289053373409,-0.04908315423170987,0.0028913661254687745,0,0,0,0
0.0001589935373408945,-0.044633484231709875,0.013203040725468775,0,0,0,0
-0.1190481946626591,-0.01678887223170987,0.004435913225468774,0,0,0,0
-0.0632388906626591,0.050996555768290125,0.07886834972546877,0,0,0,0
-0.0632388906626591,0.050996555768290125,0.07886834972546877,0,0,0,0
0.0732244653373409,0.04399892176829013,-0.023288198274531227,0,0,0,0
0.10956269533734089,-0.05473871823170987,0.025953797725468773,0,0,0,0
0.10956269533734089,-0.05473871823170987,0.025953797725468773,0,0,0,0
-0.07326715766265911,-0.012760874231709872,0.10961536972546879,0,0,0,0
-0.0599741746626591,0.05204980376829013,0.04459841972546878,0,0,0,0
0.10613938533734088,-0.01211880723170987,-0.09816293027453124,0,0,0,0
0.09357301533734089,-0.06944397023170987,-0.015880139274531226,0,0,0,0
0.09357301533734089,-0.06944397023170987,-0.015880139274531226,0,0,0,0
0.022872368337340895,-0.06979867723170988,0.07876861972546877,0,0,0,0
0.030062595337340896,-0.03320777023170987,0.10284320972546877,0,0,0,0
0.030062595337340896,-0.03320777023170987,0.10284320972546877,0,0,0,0
0.0619316253373409,0.07507759976829013,-0.08471067727453123,0,0,0,0
0.036475007337340895,-0.11796357423170988,0.030161529725468778,0,0,0,0
0.036475007337340895,-0.11796357423170988,0.030161529725468778,0,0,0,0
0.09268666933734089,0.08864180576829013,-0.043458530274531226,0,0,0,0
0.09268666933734089,0.08864180576829013,-0.043458530274531226,0,0,0,0
-0.07310684466265911,-0.06958011923170987,-0.017872651274531227,0,0,0,0
0.0576117653373409,0.051230418768290126,0.10005749972546876,0,0,0,0
0.0576117653373409,0.051230418768290126,0.10005749972546876,0,0,0,0
0.046577945337340894,0.05337345076829013,-0.06530954427453123,0,0,0,0
0.046577945337340894,0.05337345076829013,-0.06530954427453123,0,0,0,0
0.1264870853373409,-0.04826675023170987,-0.0017628744745312253,0,0,0,0
0.1264870853373409,-0.04826675023170987,-0.0017628744745312253,0,0,0,0
0.1264870853373409,-0.04826675023170987,-0.0017628744745312253,0,0,0,0
0.030597035337340893,-0.034801089231709874,0.02591849972546877,0,0,0,0
-0.10254963466265912,0.03164893776829013,0.0013905567254687756,0,0,0,0
-0.10254963466265912,0.03164893776829013,0.0013905567254687756,0,0,0,0
-0.07733667466265912,0.06424787076829014,0.019271366725468773,0,0,0,0
0.13460189533734088,-0.022791501231709872,-0.0010552602745312247,0,0,0,0
0.19619208533734087,-0.02236611823170987,0.012078015725468776,0,0,0,0
0.19619208533734087,-0.02236611823170987,0.012078015725468776,0,0,0,0
0.12196017533734088,-0.02084791023170987,-0.06514937427453123,0,0,0,0
0.06806108133734089,0.0037798081682901287,0.05250353972546878,0,0,0,0
-0.0994382696626591,0.028134115768290134,0.009811298725468775,0,0,0,0
-0.1072425646626591,0.04695747576829013,-0.037073500274531226,0,0,0,0
0.0430406733373409,-0.032578624231709874,-0.018284388274531226,0,0,0,0
0.0430406733373409,-0.032578624231709874,-0.018284388274531226,0,0,0,0
0.0654605053373409,-0.03471379223170987,0.04628013972546878,0,0,0,0
0.04351474533734089,0.05139627776829013,-0.020601506274531223,0,0,0,0
-0.022464831662659106,0.08492364576829013,0.010621444725468773,0,0,0,0
-0.10472267466265912,0.054394030768290136,0.013387565725468772,0,0,0,0
-0.10472267466265912,0.054394030768290136,0.013387565725468772,0,0,0,0
-0.010251696662659106,-0.06595107823170987,0.06861238972546876,0,0,0,0
0.04420711233734089,-0.06539227923170987,0.03985298172546878,0,0,0,0
0.09234964033734089,-0.04997320723170987,-0.021790357274531227,0,0,0,0
0.0324655693373409,0.005889612768290128,-0.017633409874531224,0,0,0,0
0.0324655693373409,0.005889612768290128,-0.017633409874531224,0,0,0,0
-0.2043695746626591,0.06068313176829013,0.07333899572546877,0,0,0,0
-0.19468859466265911,0.02412035176829013,0.059517749725468784,0,0,0,0
-0.19468859466265911,0.02412035176829013,0.059517749725468784,0,0,0,0
0.055998055337340896,-0.027865504231709866,0.10077289972546878,0,0,0,0
0.055998055337340896,-0.027865504231709866,0.10077289972546878,0,0,0,0
0.053824631337340896,-0.01594391723170987,0.038857404725468773,0,0,0,0
-0.09874122966265911,0.03905929976829013,0.09950956972546877,0,0,0,0
-0.2253953746626591,0.006868920168290129,0.020198361725468777,0,0,0,0
-0.1998404346626591,-0.039976301231709865,0.027768389725468776,0,0,0,0
-0.11042965466265911,-0.04665273723170987,0.10228901972546876,0,0,0,0
-0.011922915662659104,-0.025817224231709873,0.09535461972546878,0,0,0,0
0.1441720153373409,-0.007591131231709873,0.015632895725468773,0,0,0,0
0.06232396533734089,0.03248339976829013,-0.03172698727453122,0,0,0,0
0.06232396533734089,0.03248339976829013,-0.03172698727453122,0,0,0,0
-0.049107439662659104,0.04212698976829013,-0.012555845274531225,0,0,0,0
-0.10427702466265912,-0.030733664231709867,0.13105941972546875,0,0,0,0
-0.05118816666265911,-0.03946823723170987,0.029238454725468776,0,0,0,0
-0.05118816666265911,-0.03946823723170987,0.029238454725468776,0,0,0,0
0.11527263533734089,-0.01048842623170987,0.0005769537254687743,0,0,0,0
0.11527263533734089,-0.01048842623170987,0.0005769537254687743,0,0,0,0
-0.0438904596626591,-0.01912512123170987,-0.0007016256745312251,0,0,0,0
-0.0438904596626591,-0.01912512123170987,-0.0007016256745312251,0,0,0,0
-0.09887674466265911,-0.06400641423170987,0.04529299972546878,0,0,0,0
-0.06296985966265911,-0.02162660923170987,0.08588341972546877,0,0,0,0
0.07533647533734089,-0.012160131231709871,-0.09409764527453122,0,0,0,0
0.0558996353373409,-0.004894673231709872,-0.011817713274531225,0,0,0,0
-0.051082022662659106,-0.04437248923170987,0.05547355972546878,0,0,0,0
-0.0344415506626591,0.0001988236682901284,-0.012200291474531225,0,0,0,0
-0.019787676662659105,0.022847642768290127,-0.06287073627453123,0,0,0,0
0.031100955337340898,-0.016699588231709868,0.011236999725468776,0,0,0,0
0.07876216533734089,-0.03466241423170987,0.03732415972546878,0,0,0,0
0.07876216533734089,-0.03466241423170987,0.03732415972546878,0,0,0,0
0.0721353693373409,0.02223120676829013,-0.020020313274531226,0,0,0,0
0.013935772337340894,-0.02270788823170987,0.07918550972546877,0,0,0,0
0.15304042533734089,0.030392649768290127,-0.018757386274531225,0,0,0,0
0.15304042533734089,0.030392649768290127,-0.018757386274531225,0,0,0,0
0.13690129533734088,0.01369823876829013,0.07262301972546878,0,0,0,0
0.12359544533734088,-0.06260200423170986,0.0019910317254687735,0,0,0,0
0.1693878353373409,-0.002661448231709871,0.015187726725468774,0,0,0,0
0.1263901853373409,-0.006447368231709872,-0.03631432227453123,0,0,0,0
0.1263901853373409,-0.006447368231709872,-0.03631432227453123,0,0,0,0
0.1646870753373409,-0.0055821592317098715,0.03456299172546878,0,0,0,0
0.2828357853373409,-0.007155280831709871,-0.07126616027453123,0,0,0,0
0.2588400053373409,0.020053422768290127,-0.06888791427453123,0,0,0,0
0.1650040753373409,0.01240089576829013,-0.08235226027453123,0,0,0,0
0.10281898533734088,-0.08890156423170986,-0.11776436027453122,0,0,0,0
0.0524117653373409,0.04627887576829013,-0.10354555427453123,0,0,0,0
-0.08295162466265911,0.057350945768290126,-0.12484887027453123,0,0,0,0
-0.024056514662659106,-0.037298434231709865,0.02120333772546877,0,0,0,0
-0.006045516162659106,0.008029199068290128,-0.10369373027453123,0,0,0,0
-0.12084959466265913,0.030188712768290125,-0.05016224027453122,0,0,0,0
0.0550514353373409,0.04619540576829013,-0.06807526027453122,0,0,0,0
-0.06063602466265911,0.04217599976829013,-0.058559470274531226,0,0,0,0
-0.06340654466265912,0.01772443076829013,0.034347586725468775,0,0,0,0
-0.06340654466265912,0.01772443076829013,0.034347586725468775,0,0,0,0
-0.10526045466265913,0.013062745768290128,-0.032031758274531225,0,0,0,0
-0.010975916662659107,0.019121724768290126,0.028068075725468777,0,0,0,0
0.030536285337340895,0.0074520353682901285,-0.07739604027453123,0,0,0,0
0.030536285337340895,0.0074520353682901285,-0.07739604027453123,0,0,0,0
-0.0756735646626591,-0.020776861231709874,0.07534489972546878,0,0,0,0
-0.013366015662659107,-0.05209589423170988,0.010744361725468773,0,0,0,0
0.03559152333734089,-0.08450170423170987,0.03379679772546878,0,0,0,0
0.014537827337340894,0.006805849568290129,-0.023357458274531225,0,0,0,0
